Time,header.seq,header.stamp.secs,header.stamp.nsecs,header.frame_id,orientation.x,orientation.y,orientation.z,orientation.w,angular_velocity.x,angular_velocity.y,angular_velocity.z,linear_acceleration.x,linear_acceleration.y,linear_acceleration.z,magnetic_field.x,magnetic_field.y,magnetic_field.z
1646352655.0962648,18030,1646352655,90771913,,0.01283147276347383,-0.006777543720135259,-0.9990392312580344,0.041352540613576426,0.00556,0.005216,-0.039763,0.449,0.025,-9.69,-3.3339999999999996e-05,3.61e-06,1.657e-05
1646352655.1208014,18031,1646352655,115752935,,0.012829466624470064,-0.0068095210319165265,-0.9990577156528357,0.04089885088832147,0.004525,-0.003739,-0.040945,0.667,-0.145,-9.921,-3.3600000000000004e-05,3.7900000000000006e-06,1.6950000000000002e-05
1646352655.1457853,18032,1646352655,140879154,,0.012827732601492427,-0.006840938199656481,-0.9990742276269682,0.04048874575027082,0.00307,-0.002155,-0.039635,0.662,-0.262,-9.867,-3.3260000000000003e-05,3.34e-06,1.697e-05
1646352655.170558,18033,1646352655,165789604,,0.01281765516249413,-0.006890703150757831,-0.9990923049840182,0.04003488538693515,0.005871,0.000632,-0.039582,0.677,-0.256,-9.989,-3.368e-05,3.6200000000000005e-06,1.734e-05
1646352655.1952617,18034,1646352655,190775394,,0.01278993362198235,-0.006932100699912701,-0.9991094111825375,0.03960742435850665,0.003327,0.000274,-0.040906,0.734,-0.297,-9.65,-3.3860000000000004e-05,3.2599999999999997e-06,1.704e-05
1646352655.2215934,18035,1646352655,215986251,,0.01277095882540173,-0.0069730208208240805,-0.9991258842822663,0.039188607381373454,0.001926,-0.000858,-0.041288,0.466,-0.188,-9.246,-3.403e-05,3.6200000000000005e-06,1.712e-05
1646352655.245125,18036,1646352655,240878105,,0.0127432328874667,-0.007014266221809049,-0.999142286401947,0.03876985437727221,0.002694,-0.003267,-0.042183,0.481,-0.158,-9.103,-3.5060000000000007e-05,4.09e-06,1.7160000000000002e-05
1646352655.2701752,18037,1646352655,265792369,,0.012724158665222427,-0.0070645388560884766,-0.999160350172959,0.0382985994425822,0.002442,-0.005758,-0.044625,0.351,-0.27,-8.965,-3.489e-05,3.82e-06,1.687e-05
1646352655.2952816,18038,1646352655,290762186,,0.012714687288289213,-0.007140732688019727,-0.9991782269879627,0.03781821488424331,0.005835,-0.005051,-0.04657,0.409,-0.275,-9.252,-3.454e-05,4.17e-06,1.679e-05
1646352655.3211112,18039,1646352655,316100597,,0.012714779506351434,-0.007242861357358505,-0.9991958984804596,0.037328699432074355,0.008241,-0.004606,-0.049311,0.467,-0.403,-9.383,-3.532e-05,4.01e-06,1.7140000000000002e-05
1646352655.34622,18040,1646352655,340831279,,0.012714197910471245,-0.007345990325900048,-0.9992162112049874,0.03676069725638076,0.009182,-0.001676,-0.055528,0.543,-0.418,-9.844,-3.549e-05,4.1900000000000005e-06,1.743e-05
1646352655.3705933,18041,1646352655,365906000,,0.012722028195685254,-0.0074491363750704915,-0.9992370330390821,0.03616645087793738,0.008016,0.0,-0.053918,0.596,-0.433,-9.858,-3.481e-05,3.4500000000000004e-06,1.659e-05
1646352655.3951197,18042,1646352655,390776872,,0.012702808767279883,-0.007545286485158449,-0.9992600472336375,0.03551148129699961,0.007896,-0.001531,-0.058997,0.585,-0.45,-9.902,-3.507e-05,3.6400000000000003e-06,1.7160000000000002e-05
1646352655.4205427,18043,1646352655,415875911,,0.012691685183948405,-0.007632720522713529,-0.9992834971463791,0.03483037518483238,0.007873,-0.002047,-0.061968,0.625,-0.369,-9.714,-3.558e-05,4.01e-06,1.772e-05
1646352655.4457614,18044,1646352655,440969228,,0.01268830403573814,-0.007702844794936004,-0.9993076967150406,0.03411451903284204,0.004057,-0.002586,-0.065172,0.477,-0.457,-9.499,-3.567e-05,4.2000000000000004e-06,1.762e-05
1646352655.472161,18045,1646352655,465864181,,0.012675681247853475,-0.007764761730247149,-0.9993321361686174,0.03338139003760924,0.00348,0.000308,-0.066684,0.525,-0.372,-9.522,-3.49e-05,3.55e-06,1.7080000000000002e-05
1646352655.496217,18046,1646352655,491271257,,0.012680348117377675,-0.007826201532394028,-0.9993561080517529,0.03263937255600176,0.002976,-0.002082,-0.067194,0.366,-0.391,-9.119,-3.558e-05,4.1000000000000006e-06,1.743e-05
1646352655.5205805,18047,1646352655,515885829,,0.012684236685649991,-0.007870431386940628,-0.9993802202697643,0.03188011579407079,0.001097,-0.003022,-0.069473,0.378,-0.37,-9.183,-3.61e-05,3.84e-06,1.74e-05
1646352655.5463233,18048,1646352655,540944576,,0.012679471792531842,-0.007933051795209393,-0.9994053503417619,0.03106836642852317,0.004815,-0.001596,-0.072614,0.351,-0.429,-9.066,-3.523e-05,4.4600000000000005e-06,1.7440000000000002e-05
1646352655.5708082,18049,1646352655,566001653,,0.012674683350389309,-0.007995558989825964,-0.9994295542522433,0.030265318857891216,0.004375,-0.002717,-0.073176,0.454,-0.432,-9.461,-3.5060000000000007e-05,3.910000000000001e-06,1.7160000000000002e-05
1646352655.5968611,18050,1646352655,590830326,,0.012677729613368875,-0.008040803413199384,-0.9994541722074939,0.029427509397737715,0.00246,-0.001555,-0.075228,0.458,-0.461,-9.538,-3.516e-05,3.2800000000000004e-06,1.677e-05
1646352655.6203387,18051,1646352655,615776538,,0.012680459443091903,-0.008077336418059158,-0.9994781570878005,0.028589789944584613,0.002714,0.002024,-0.077109,0.455,-0.381,-9.628,-3.473e-05,3.36e-06,1.659e-05
1646352655.644711,18052,1646352655,640711784,,0.01268236994538191,-0.00809687772114662,-0.9995025486528893,0.027717382634652187,0.001763,-8.5e-05,-0.080337,0.57,-0.416,-9.765,-3.447e-05,3.36e-06,1.631e-05
1646352655.6700823,18053,1646352655,665852069,,0.01267515774620664,-0.008108163316775552,-0.9995268244307085,0.02682769664359795,8.4e-05,-0.002255,-0.082105,0.514,-0.449,-9.565,-3.463e-05,3.910000000000001e-06,1.758e-05
1646352655.6961691,18054,1646352655,691082239,,0.012676813598430965,-0.008128047648052807,-0.9995503569470723,0.025929079532481927,0.002457,-0.002862,-0.084138,0.54,-0.37,-9.643,-3.447e-05,2.9e-06,1.6610000000000002e-05
1646352655.7215984,18055,1646352655,715913295,,0.012677941382509507,-0.008139661124424234,-0.9995740256086633,0.024995660574840133,0.000354,-0.0026,-0.08634,0.507,-0.449,-9.397,-3.403e-05,3.2599999999999997e-06,1.713e-05
1646352655.7457943,18056,1646352655,741022825,,0.012670398953763977,-0.008169494731194235,-0.9995978361040675,0.024018459614536126,0.000504,-0.000925,-0.088642,0.555,-0.327,-9.455,-3.3520000000000004e-05,2.9800000000000003e-06,1.637e-05
1646352655.770789,18057,1646352655,765829324,,0.012679698450309262,-0.008190745438487535,-0.9996215525886644,0.022997576754932157,0.001263,-0.002815,-0.092796,0.404,-0.397,-9.143,-3.369e-05,3.0700000000000003e-06,1.626e-05
1646352655.7944295,18058,1646352655,790858983,,0.012663060756962613,-0.008221217578162283,-0.9996442845864325,0.021985512672614883,0.000785,-0.003238,-0.093645,0.559,-0.308,-9.409,-3.344e-05,2.7e-06,1.618e-05
1646352655.822259,18059,1646352655,816132307,,0.01268032824390623,-0.008234362697733939,-0.9996671676525526,0.020903551471275032,-0.000948,-0.000103,-0.0963,0.441,-0.337,-9.126,-3.3350000000000004e-05,2.52e-06,1.688e-05
1646352655.8458314,18060,1646352655,840883970,,0.0126885702680932,-0.008248172563112003,-0.9996896780873559,0.019786747067664326,-0.001339,-0.001052,-0.097373,0.532,-0.279,-9.335,-3.3260000000000003e-05,3.06e-06,1.648e-05
1646352655.8708978,18061,1646352655,865915298,,0.012705502441479161,-0.008252900452667699,-0.9997105785537108,0.018687401361150806,-0.002258,-0.003019,-0.097613,0.504,-0.347,-9.146,-3.309e-05,2.88e-06,1.679e-05
1646352655.8957825,18062,1646352655,890881538,,0.012696357050956234,-0.00827592257745389,-0.9997309100134463,0.01756186740677946,0.000913,-0.003609,-0.099642,0.577,-0.277,-9.304,-3.318e-05,2.43e-06,1.679e-05
1646352655.920344,18063,1646352655,915834188,,0.012704262683444106,-0.008299198299231684,-0.9997504737433446,0.0163925369366097,0.001457,-0.004088,-0.09849,0.518,-0.3,-9.167,-3.3350000000000004e-05,2.7e-06,1.718e-05
1646352655.9431171,18064,1646352655,940883636,,0.012703697117688663,-0.00832219508822033,-0.9997682460125307,0.015258158915269777,-0.000507,-0.003148,-0.100486,0.62,-0.408,-9.388,-3.3350000000000004e-05,2.7e-06,1.658e-05
1646352655.972717,18065,1646352655,965787649,,0.012703117953194941,-0.008336254782933492,-0.9997845571248398,0.014141321902456478,-0.001925,-0.002645,-0.09879,0.67,-0.288,-9.319,-3.3260000000000003e-05,2.7e-06,1.6780000000000002e-05
1646352655.9961474,18066,1646352655,990971326,,0.012702385410585134,-0.00836832761506352,-0.9998000419927614,0.012980621290226825,-0.000605,-0.003745,-0.101795,0.665,-0.29,-9.312,-3.336e-05,2.25e-06,1.669e-05
1646352656.0209117,18067,1646352656,15834093,,0.012710350276076646,-0.008409140859440589,-0.9998140996321662,0.011810991600466992,-5.7e-05,-0.0024,-0.101445,0.624,-0.371,-9.367,-3.3260000000000003e-05,2.6100000000000004e-06,1.6289999999999998e-05
1646352656.0455804,18068,1646352656,41037321,,0.01270069391904198,-0.008441448492308467,-0.9998270802899335,0.010641608911868196,-0.00192,-0.002653,-0.102544,0.734,-0.404,-9.37,-3.3520000000000004e-05,2.9800000000000003e-06,1.677e-05
1646352656.0715475,18069,1646352656,66452980,,0.012690510231718768,-0.008447901534917781,-0.9998391620811996,0.009446368533973107,-0.001723,-0.000463,-0.103723,0.727,-0.287,-9.521,-3.351e-05,3.34e-06,1.666e-05
1646352656.096784,18070,1646352656,91259956,,0.012671675951650264,-0.008463141529340683,-0.9998498505030095,0.008251079513632588,-0.000878,-0.0029,-0.105728,0.747,-0.361,-9.558,-3.3520000000000004e-05,2.71e-06,1.657e-05
1646352656.1219757,18071,1646352656,116116285,,0.01265261398329444,-0.00846984397726541,-0.9998593068490459,0.007038438018193505,0.001092,-0.003253,-0.109237,0.766,-0.308,-9.715,-3.3700000000000006e-05,2.53e-06,1.706e-05
1646352656.145916,18072,1646352656,140942335,,0.012633207979987297,-0.008468228141562294,-0.9998675690102223,0.005790993858148192,-1.1e-05,-0.000943,-0.109234,0.644,-0.377,-9.631,-3.309e-05,2.52e-06,1.66e-05
1646352656.1711118,18073,1646352656,166004180,,0.01260495736099575,-0.008484399701355155,-0.9998743544832454,0.004517217987691124,0.003284,-0.002286,-0.11332,0.71,-0.368,-9.657,-3.3350000000000004e-05,2.6100000000000004e-06,1.6780000000000002e-05
1646352656.1973855,18074,1646352656,191316127,,0.012602594096313355,-0.008509587998562886,-0.9998792272096165,0.0032081971320810023,0.000684,-0.00245,-0.114174,0.77,-0.435,-9.558,-3.3350000000000004e-05,2.34e-06,1.639e-05
1646352656.2203197,18075,1646352656,215973377,,0.012591221061250518,-0.008526407100792166,-0.9998826194781095,0.0018731790443755685,0.004119,-0.005201,-0.116727,0.716,-0.358,-9.476,-3.353e-05,2.25e-06,1.658e-05
1646352656.246085,18076,1646352656,241207122,,0.012579895360020929,-0.008534375586754149,-0.9998842990389919,0.0005469930336259668,0.002388,-0.005136,-0.119341,0.669,-0.382,-9.342,-3.3700000000000006e-05,2.4400000000000004e-06,1.607e-05
1646352656.27158,18077,1646352656,266160726,,-0.012577296308788755,0.008542333969763904,0.9998841097289524,0.0007792685355471633,4.4e-05,-0.005131,-0.117689,0.754,-0.344,-9.475,-3.378e-05,2.53e-06,1.696e-05
1646352656.295944,18078,1646352656,290885925,,-0.012574958394381452,0.008532520043826944,0.9998823649472706,0.002079132158938799,-0.002345,-0.002233,-0.119012,0.682,-0.295,-9.282,-3.3610000000000005e-05,2.6200000000000003e-06,1.696e-05
1646352656.32107,18079,1646352656,316079139,,-0.012554963209940075,0.008531713561582215,0.9998789866001242,0.003405131129501277,-0.000749,-0.003739,-0.120149,0.796,-0.273,-9.248,-3.3610000000000005e-05,2.4400000000000004e-06,1.687e-05
1646352656.3460429,18080,1646352656,340925455,,-0.012552592295466354,0.008530728840806516,0.999873711518055,0.004713820872412105,-0.00331,-0.003997,-0.119164,0.723,-0.245,-9.395,-3.379e-05,2.53e-06,1.636e-05
1646352656.3712997,18081,1646352656,366262435,,-0.012524143401683462,0.008529491176220382,0.9998671065392868,0.006013557439950386,-0.002126,-0.002289,-0.118792,0.774,-0.221,-9.434,-3.378e-05,2.89e-06,1.6950000000000002e-05
1646352656.3961408,18082,1646352656,391225099,,-0.01247784216610596,0.00854595642036696,0.9998586265923106,0.0073482591596333085,-0.000405,-0.0054,-0.117103,0.714,-0.287,-9.504,-3.369e-05,2.9800000000000003e-06,1.725e-05
1646352656.4206548,18083,1646352656,415800571,,-0.012431744395226199,0.008553370922502556,0.9998485898357717,0.008665389810760038,0.000878,-0.009985,-0.117075,0.718,-0.268,-9.712,-3.387e-05,2.53e-06,1.6950000000000002e-05
1646352656.4459321,18084,1646352656,440867900,,-0.012385972120920824,0.008543012152060471,0.9998371400317584,0.009964840746510707,-0.002192,-0.007388,-0.11756,0.698,-0.389,-9.68,-3.362e-05,2.07e-06,1.687e-05
1646352656.4713714,18085,1646352656,465995788,,-0.012340346122167412,0.008523823705085384,0.9998240738980232,0.011264170674759162,-0.001727,-0.006258,-0.115716,0.586,-0.45,-9.526,-3.379e-05,2.26e-06,1.7160000000000002e-05
1646352656.4963307,18086,1646352656,491218328,,-0.012277815295219248,0.008460797612663846,0.9998097952789117,0.012571532113257679,-0.001335,-0.009191,-0.118612,0.61,-0.321,-9.542,-3.3700000000000006e-05,2.35e-06,1.686e-05
1646352656.5207434,18087,1646352656,515896320,,-0.012223685016250433,0.008424129602191341,0.9997932269415781,0.013896723600009155,-0.001547,-0.006901,-0.117122,0.661,-0.372,-9.615,-3.396e-05,2.4400000000000004e-06,1.6850000000000003e-05
1646352656.5461292,18088,1646352656,541031360,,-0.012178650878306994,0.00836150246189691,0.999774742441811,0.015239098227070804,-0.003063,-0.0077,-0.118645,0.586,-0.368,-9.521,-3.405e-05,2.08e-06,1.705e-05
1646352656.5710776,18089,1646352656,565815925,,-0.012151545820601498,0.00829863127380336,0.9997548097363044,0.016546693394061045,-0.004316,-0.002486,-0.119306,0.589,-0.372,-9.488,-3.378e-05,2.71e-06,1.705e-05
1646352656.5955074,18090,1646352656,590900659,,-0.012115698638208746,0.008227353744113555,0.9997325604230343,0.017897712895265032,-0.002499,-0.004886,-0.120295,0.515,-0.258,-9.359,-3.396e-05,2.17e-06,1.6950000000000002e-05
1646352656.6209214,18091,1646352656,615795135,,-0.012097464042799311,0.008173352949118043,0.999708789539572,0.019214155787492197,-0.003897,-0.003751,-0.117087,0.547,-0.246,-9.435,-3.396e-05,1.99e-06,1.705e-05
1646352656.6458387,18092,1646352656,640805482,,-0.012070178677162539,0.00810295723063296,0.9996813745247466,0.020634977565609412,-0.004183,-0.00551,-0.118668,0.563,-0.209,-9.552,-3.405e-05,2.26e-06,1.665e-05
1646352656.6717744,18093,1646352656,665927171,,-0.012059881527510492,0.00804234245204746,0.9996502965781793,0.022117064375378154,-0.002535,-0.003245,-0.118627,0.632,-0.18,-9.732,-3.405e-05,2.08e-06,1.705e-05
1646352656.6965432,18094,1646352656,691161394,,-0.012049654499875793,0.007990333228783219,0.9996171513970318,0.023590486095256373,-0.000705,-0.003385,-0.117078,0.551,-0.147,-9.687,-3.422e-05,2.08e-06,1.664e-05
1646352656.7206104,18095,1646352656,715926885,,-0.01204796206346038,0.00795586939115654,0.9995818011644463,0.02505540926006904,-0.000781,-0.000161,-0.1153,0.571,-0.123,-9.704,-3.379e-05,1.8e-06,1.6669999999999998e-05
1646352656.7456446,18096,1646352656,740808963,,-0.012020666951820892,0.007911691068260802,0.9995453899000345,0.026493815128477743,0.000513,-0.001881,-0.114216,0.562,-0.084,-9.675,-3.353e-05,2.43e-06,1.677e-05
1646352656.7711468,18097,1646352656,766334772,,-0.012002939422443697,0.007849933935668641,0.9995076643858992,0.02790585630779346,-0.002723,-4.8e-05,-0.112132,0.548,-0.085,-9.797,-3.362e-05,2.07e-06,1.668e-05
1646352656.7957392,18098,1646352656,790916204,,-0.011959516131088359,0.00778696233059863,0.9994692854076003,0.029282771699298455,-0.003823,-0.004593,-0.110767,0.422,-0.065,-9.438,-3.379e-05,2.17e-06,1.637e-05
1646352656.8214297,18099,1646352656,815969944,,-0.011916758779247328,0.007714852288747463,0.9994298717377768,0.030633370571501013,-0.004858,-0.003877,-0.106497,0.472,-0.021,-9.602,-3.379e-05,1.8e-06,1.687e-05
1646352656.845413,18100,1646352656,840761423,,-0.01185655154888717,0.007659010976558501,0.9993901002187661,0.03194040264233159,-0.001779,-0.003939,-0.102952,0.442,-0.076,-9.52,-3.362e-05,1.53e-06,1.639e-05
1646352656.8709147,18101,1646352656,865869283,,-0.011787698987917605,0.007611148974779531,0.99934952230703,0.03322127072471505,-0.002059,-0.005632,-0.099955,0.446,-0.059,-9.455,-3.371e-05,1.8e-06,1.588e-05
1646352656.8956358,18102,1646352656,890935659,,-0.011717748761811567,0.007606316858823642,0.9993081678614713,0.03446772335312849,0.000754,-0.008891,-0.098115,0.251,-0.131,-9.154,-3.354e-05,1.7100000000000001e-06,1.609e-05
1646352656.921559,18103,1646352656,915769100,,-0.0116393740152186,0.007600605527129074,0.999266606773052,0.03567918659983167,0.00143,-0.006416,-0.096847,0.365,-0.135,-9.405,-3.371e-05,1.62e-06,1.5790000000000003e-05
1646352656.94611,18104,1646352656,941133260,,-0.011569816594097736,0.007594934696642158,0.9992237881251398,0.03688194078107082,0.001262,-0.005626,-0.095088,0.465,-0.167,-9.474,-3.354e-05,1.62e-06,1.639e-05
1646352656.9715059,18105,1646352656,965918302,,-0.011492433108908177,0.007571036601369331,0.9991807517464995,0.03805822808957505,0.000615,-0.005835,-0.09489,0.517,-0.24,-9.764,-3.328e-05,1.61e-06,1.561e-05
1646352656.9966257,18106,1646352656,991260528,,-0.011407087584192977,0.007529187504672683,0.9991365603505123,0.03923421286725595,-0.002797,-0.009326,-0.09376,0.517,-0.235,-9.457,-3.328e-05,1.61e-06,1.611e-05
1646352657.0208094,18107,1646352657,15750169,,-0.011357919820847611,0.007462198256565188,0.9990914608968624,0.04039264806244123,-0.004415,-0.004433,-0.092046,0.355,-0.216,-9.294,-3.337e-05,1.34e-06,1.611e-05
1646352657.0463285,18108,1646352657,41311502,,-0.011300695981506962,0.00738582823671523,0.9990459031642018,0.04153344655112681,-0.007929,-0.005673,-0.089517,0.275,-0.133,-9.102,-3.345000000000001e-05,1.7100000000000001e-06,1.59e-05
1646352657.0715086,18109,1646352657,66480398,,-0.011261660971004436,0.007301066385013544,0.9990000061748143,0.0426480607359456,-0.00504,-0.00587,-0.087766,0.201,-0.166,-9.055,-3.319e-05,1.8800000000000002e-06,1.631e-05
1646352657.0974424,18110,1646352657,91091871,,-0.01120513834639707,0.007223987351903947,0.9989537615352422,0.043745184831798935,-0.002893,-0.005301,-0.087347,0.354,-0.073,-9.43,-3.311e-05,1.52e-06,1.622e-05
1646352657.120493,18111,1646352657,115786314,,-0.011148594732950864,0.007155218006227385,0.9989074124785736,0.04481621342911813,-0.00459,-0.006129,-0.084023,0.407,-0.162,-9.498,-3.337e-05,1.25e-06,1.591e-05
1646352657.1456265,18112,1646352657,140795707,,-0.011065784661168827,0.007093661690622885,0.9988609505184473,0.04586970572213813,-0.002509,-0.005091,-0.083225,0.443,-0.061,-9.83,-3.311e-05,1.25e-06,1.533e-05
1646352657.1709695,18113,1646352657,165900707,,-0.01097429825791451,0.007039767600552015,0.9988154521480274,0.046879622440972366,-0.001441,-0.007811,-0.079976,0.507,-0.083,-9.51,-3.32e-05,1.07e-06,1.553e-05
1646352657.1965928,18114,1646352657,191091537,,-0.010865683136360917,0.006984577652748809,0.9987703748101364,0.047863253197131556,-0.001532,-0.010864,-0.077629,0.371,0.109,-9.41,-3.302e-05,1.52e-06,1.592e-05
1646352657.2204812,18115,1646352657,215916872,,-0.010747314396698774,0.006954714084785749,0.9987250834289308,0.04882965200707988,-0.001864,-0.012199,-0.075759,0.351,0.009,-9.353,-3.303e-05,9.7e-07,1.573e-05
1646352657.24638,18116,1646352657,241016387,,-0.010603109740738182,0.006922957490764855,0.998680874659864,0.04976100191933436,-0.001672,-0.014253,-0.073736,0.273,-0.006,-9.17,-3.32e-05,6.2e-07,1.613e-05
1646352657.2711082,18117,1646352657,266007900,,-0.010441342432109705,0.006898405358227986,0.9986376785323745,0.05065745144792518,0.000833,-0.013987,-0.072144,0.498,-0.017,-9.768,-3.338e-05,8.000000000000001e-07,1.582e-05
1646352657.2963164,18118,1646352657,291033506,,-0.010280257250324554,0.006864584264774395,0.9985950612529104,0.05152763758445683,0.000733,-0.012,-0.069824,0.568,-0.073,-9.58,-3.329e-05,9.8e-07,1.5620000000000003e-05
1646352657.3210688,18119,1646352657,315835237,,-0.010091964149645388,0.00685490843618619,0.9985535904040228,0.052363055498782424,0.003737,-0.013853,-0.066928,0.448,-0.004,-9.689,-3.337e-05,9.8e-07,1.601e-05
1646352657.3462076,18120,1646352657,340783596,,-0.009920896694119358,0.006854215269969191,0.9985129987587661,0.0531637738652349,0.002071,-0.014934,-0.062683,0.4,-0.07,-9.407,-3.345000000000001e-05,1.35e-06,1.62e-05
1646352657.3708005,18121,1646352657,366083621,,-0.009775685545473582,0.0068631184840668895,0.9984728167555074,0.05393855557124785,0.00199,-0.012058,-0.061744,0.22,-0.011,-9.21,-3.345000000000001e-05,1.44e-06,1.6000000000000003e-05
1646352657.3954666,18122,1646352657,390925884,,-0.009657202797150793,0.006864347729486142,0.9984327582856535,0.05469594451588956,-7e-06,-0.010598,-0.059228,0.263,-0.033,-9.284,-3.337e-05,1.25e-06,1.611e-05
1646352657.420632,18123,1646352657,415994167,,-0.009582890761642954,0.006858935214600108,0.998392692301006,0.055436045785400984,-0.000974,-0.009899,-0.058093,0.133,-0.128,-9.101,-3.328e-05,1.16e-06,1.592e-05
1646352657.4461515,18124,1646352657,440835475,,-0.00952699716290303,0.006836969949201487,0.9983520137091951,0.05617605263603346,-0.000387,-0.004729,-0.058317,0.33,-0.055,-9.695,-3.346e-05,1.07e-06,1.601e-05
1646352657.4711297,18125,1646352657,465765237,,-0.009496462828083896,0.006833587524065966,0.9983118867036024,0.056890211298601716,0.000304,-0.000957,-0.057985,0.412,-0.232,-9.697,-3.355e-05,8.900000000000001e-07,1.6000000000000003e-05
1646352657.4956806,18126,1646352657,490962505,,-0.009466943599780295,0.006812741774261784,0.9982713671038045,0.05760417649005084,-0.000697,-0.001901,-0.055681,0.473,-0.162,-9.862,-3.363e-05,9.9e-07,1.5700000000000002e-05
1646352657.5205421,18127,1646352657,516000032,,-0.009455508915507347,0.006783996747495216,0.9982312348423044,0.05830070775288132,-8.7e-05,0.000645,-0.055473,0.522,-0.217,-9.764,-3.372e-05,1.17e-06,1.6289999999999998e-05
1646352657.5461004,18128,1646352657,540956497,,-0.009445780952297736,0.0067289416471176654,0.9981918213057147,0.05897954259648754,-0.005163,-0.002915,-0.055051,0.388,-0.068,-9.396,-3.311e-05,1.07e-06,1.612e-05
1646352657.5726476,18129,1646352657,566573619,,-0.009419406195640913,0.006663880171750429,0.99815373920057,0.05963204178878059,-0.007788,-0.004748,-0.050796,0.431,-0.068,-9.396,-3.355e-05,8.900000000000001e-07,1.581e-05
1646352657.5960765,18130,1646352657,590905666,,-0.009369848956727683,0.006553333763529618,0.9981178799650373,0.06024912813652292,-0.011614,-0.009436,-0.048218,0.282,-0.072,-9.077,-3.363e-05,8.900000000000001e-07,1.5010000000000002e-05
1646352657.621484,18131,1646352657,615757226,,-0.009296594562701894,0.006406054804897311,0.9980837026153317,0.06083961180878293,-0.01036,-0.011048,-0.044581,0.384,-0.072,-9.343,-3.38e-05,1.17e-06,1.6080000000000002e-05
1646352657.6444814,18132,1646352657,640733957,,-0.00919867881292699,0.006239345122997114,0.9980516585262724,0.061394965538629914,-0.011508,-0.010173,-0.04194,0.328,-0.12,-9.323,-3.38e-05,1.17e-06,1.5890000000000002e-05
1646352657.6705446,18133,1646352657,666123628,,-0.009084825398045946,0.006053712267224815,0.9980217031430624,0.06191525313437569,-0.0125,-0.008502,-0.040898,0.44,0.041,-9.945,-3.38e-05,9.9e-07,1.6380000000000002e-05
1646352657.694438,18134,1646352657,690904140,,-0.008961523452972657,0.00588460084937277,0.9979930410133969,0.06240955583144071,-0.009631,-0.008432,-0.037185,0.484,0.013,-9.588,-3.424e-05,8.200000000000001e-07,1.5570000000000002e-05
1646352657.7203953,18135,1646352657,715773105,,-0.008828784694392095,0.005731929089846415,0.997966264807854,0.0628691645816088,-0.010105,-0.013197,-0.035489,0.341,0.166,-9.527,-3.415e-05,1.18e-06,1.5870000000000002e-05
1646352657.745985,18136,1646352657,740855455,,-0.008711591371608502,0.005614769474814629,0.9979410844913009,0.06329434748731305,-0.009737,-0.009863,-0.032027,0.326,0.149,-9.52,-3.4410000000000004e-05,8.200000000000001e-07,1.616e-05
1646352657.7712796,18137,1646352657,765900373,,-0.00861034477061367,0.005524595956102949,0.9979165000664475,0.06370243086087843,-0.004625,-0.010852,-0.031696,0.231,0.18,-9.216,-3.4399999999999996e-05,1.6299999999999999e-06,1.634e-05
1646352657.794154,18138,1646352657,790096521,,-0.0084995364220153,0.005450901164341983,0.9978939510138908,0.06407579954237087,-0.000849,-0.009905,-0.029899,0.251,0.19,-9.51,-3.415e-05,1.27e-06,1.596e-05
1646352657.8189888,18139,1646352657,815179347,,-0.008403577735302209,0.005421494141100848,0.9978730996156806,0.06441478359754674,0.000383,-0.006496,-0.025477,0.219,0.147,-9.321,-3.4070000000000004e-05,9e-07,1.558e-05
1646352657.8456907,18140,1646352657,840929031,,-0.00828914108490618,0.005408237097856265,0.9978527494503788,0.06474512742969642,0.004606,-0.010167,-0.02448,0.325,0.369,-9.745,-3.381e-05,9.9e-07,1.619e-05
1646352657.8713923,18141,1646352657,865975856,,-0.008215130905571156,0.005449556732824626,0.9978350137179264,0.06502383681516882,0.006223,-0.00496,-0.020829,0.356,0.205,-9.633,-3.389e-05,8.1e-07,1.569e-05
1646352657.8950858,18142,1646352657,890145778,,-0.008148906530679768,0.0055084642446749914,0.9978198694789571,0.06525917726279314,0.006805,-0.002639,-0.017537,0.267,0.312,-9.839,-3.363e-05,9.9e-07,1.56e-05
1646352657.9210045,18143,1646352657,916504859,,-0.008107829336955565,0.005586185257890227,0.9978066218447101,0.06545993462076571,0.007065,-0.001344,-0.014214,0.215,0.207,-9.619,-3.415e-05,8.1e-07,1.577e-05
1646352657.94303,18144,1646352657,940218687,,-0.008085054623188497,0.005655833233416504,0.9977972326525092,0.0655997404962132,0.007047,-0.001299,-0.010223,0.024,0.096,-9.279,-3.415e-05,8.1e-07,1.637e-05
1646352657.969995,18145,1646352657,965775251,,-0.008071167850696559,0.0057257661405301285,0.997790036663145,0.06570475315675188,0.005855,-0.004108,-0.006167,0.147,0.155,-9.582,-3.424e-05,5.4e-07,1.6270000000000002e-05
1646352657.9966066,18146,1646352657,990999221,,-0.008074360189519363,0.005805198229349305,0.9977854918495499,0.06576637921916895,0.008515,-0.002001,-0.003553,0.158,-0.047,-9.289,-3.424e-05,1.18e-06,1.616e-05
1646352658.0207987,18147,1646352658,16107797,,-0.008059656509336804,0.005892049951769733,0.9977821873830025,0.06581057837086696,0.008687,0.000631,-0.002529,0.299,-0.028,-9.763,-3.406e-05,9.9e-07,1.548e-05
1646352658.0464156,18148,1646352658,41067361,,-0.00804463176998255,0.005987256625431968,0.9977816936808009,0.06581130915928568,0.008603,0.001442,0.001371,0.375,-0.114,-9.672,-3.414e-05,1.8100000000000002e-06,1.5759999999999998e-05
1646352658.0716155,18149,1646352658,65900802,,-0.00801281959934009,0.006072539034296372,0.9977819708413981,0.06580317359824638,0.00894,0.00232,0.002146,0.381,-0.005,-9.647,-3.398e-05,9.9e-07,1.618e-05
1646352658.0960407,18150,1646352658,90891599,,-0.007964329299096067,0.006147759487881661,0.9977841678478728,0.0657687532512409,0.005028,-0.000867,0.003431,0.315,-0.068,-9.437,-3.4320000000000003e-05,1.36e-06,1.595e-05
1646352658.1208596,18151,1646352658,115781307,,-0.0079193937592678,0.00617060114555494,0.997787827650626,0.06571649622608272,-0.001371,-0.00216,0.003664,0.209,-0.081,-9.22,-3.4399999999999996e-05,1.54e-06,1.654e-05
1646352658.1463304,18152,1646352658,141097545,,-0.007876287346399554,0.006167187941216877,0.9977927899864907,0.06564661561352185,-0.001321,-0.004351,0.006385,0.123,0.004,-9.301,-3.4320000000000003e-05,1.27e-06,1.6550000000000002e-05
1646352658.170339,18153,1646352658,165825366,,-0.007853670434654863,0.006121112408632294,0.9978001522552467,0.06554165090224114,-0.002674,-0.003614,0.009566,0.081,0.025,-9.19,-3.4320000000000003e-05,1.6299999999999999e-06,1.635e-05
1646352658.1968777,18154,1646352658,191064596,,-0.007839339733377452,0.006084114175296469,0.9978090857700086,0.06541067697300414,0.001853,0.00299,0.014491,0.236,0.207,-9.772,-3.406e-05,1.36e-06,1.656e-05
1646352658.220795,18155,1646352658,216003179,,-0.00781515245997166,0.006063966105415017,0.997817969346935,0.06527979592078063,0.001059,0.002684,0.015824,0.376,0.141,-9.61,-3.4320000000000003e-05,1.45e-06,1.6150000000000003e-05
1646352658.2442074,18156,1646352658,240281343,,-0.00782575077996182,0.006054120214140954,0.9978321657750086,0.06506207956958122,0.00319,0.001017,0.019751,0.317,0.191,-9.741,-3.484e-05,1.37e-06,1.6819999999999998e-05
1646352658.2707796,18157,1646352658,265913486,,-0.007845369573855855,0.006044424297092751,0.9978496337636542,0.06479215622980593,0.000916,-0.00074,0.02186,0.217,0.267,-9.319,-3.5010000000000005e-05,1.28e-06,1.631e-05
1646352658.2965376,18158,1646352658,290966510,,-0.007864631579312852,0.006043151717775594,0.997869227319325,0.06448746433665159,0.002178,0.000764,0.025514,0.137,0.264,-9.311,-3.535e-05,1.92e-06,1.668e-05
1646352658.3222651,18159,1646352658,316042900,,-0.007876568295003189,0.006023548507153713,0.9978917073118305,0.06413904437669934,0.00189,-0.00231,0.030439,0.223,0.285,-9.302,-3.493e-05,1.01e-06,1.583e-05
1646352658.3461733,18160,1646352658,340883970,,-0.007888407810020799,0.006012026609106921,0.997919019886713,0.06371230890978573,0.001784,-0.00286,0.035554,0.007,0.242,-9.023,-3.579e-05,1.3e-06,1.6170000000000003e-05
1646352658.371336,18161,1646352658,366224050,,-0.007891240034836237,0.0060083086171071965,0.9979489328018541,0.06324204359375572,0.004415,-0.00112,0.039852,0.262,0.361,-9.76,-3.493e-05,1.1e-06,1.622e-05
1646352658.3956861,18162,1646352658,391012430,,-0.00787652431916135,0.006011654434152356,0.9979831012039861,0.06270207402382003,0.002522,0.000816,0.04495,0.334,0.242,-9.485,-3.535e-05,1.65e-06,1.619e-05
1646352658.4203072,18163,1646352658,415772199,,-0.0078457423263449,0.005996173562476002,0.9980199422836933,0.06211831480337346,0.001681,-0.000892,0.04945,0.2,0.395,-9.731,-3.571e-05,1.21e-06,1.618e-05
1646352658.4472628,18164,1646352658,441127538,,-0.007814878316859756,0.005988826656887657,0.9980612181787125,0.06145621530643465,0.001339,-4.3e-05,0.054734,0.211,0.306,-9.394,-3.588e-05,1.3e-06,1.636e-05
1646352658.4708512,18165,1646352658,465797424,,-0.007785911414777471,0.005954985408130551,0.9981053916580935,0.06074162391041124,0.000917,-0.001101,0.058503,0.008,0.337,-9.34,-3.587e-05,1.84e-06,1.6950000000000002e-05
1646352658.4956164,18166,1646352658,490751981,,-0.007741307659747444,0.0058936732775059794,0.9981519709841579,0.059983160899171384,-0.002649,-0.005309,0.064103,0.067,0.383,-9.484,-3.587e-05,1.7500000000000002e-06,1.665e-05
1646352658.5208833,18167,1646352658,515784263,,-0.007724137110867418,0.0058160868370570095,0.9982014673213109,0.05916368377119896,-0.006654,-0.004409,0.066764,-0.041,0.277,-9.276,-3.6309999999999996e-05,1.4000000000000001e-06,1.683e-05
1646352658.5454898,18168,1646352658,540939331,,-0.007707703585217006,0.005729350314261252,0.9982538973260224,0.05828312211803602,-0.004362,0.002287,0.072717,0.14,0.38,-9.834,-3.613e-05,1.76e-06,1.644e-05
1646352658.571768,18169,1646352658,565826654,,-0.007716052891257355,0.005669879454140417,0.9983081823086923,0.057350572187811165,-0.001061,0.003443,0.076203,0.236,0.348,-9.486,-3.622e-05,1.4900000000000001e-06,1.674e-05
1646352658.5967252,18170,1646352658,591140508,,-0.007716566548305071,0.0056005206844917076,0.9983666343399362,0.05633073943697266,-0.004106,0.000434,0.083604,0.169,0.529,-9.592,-3.613e-05,1.4900000000000001e-06,1.654e-05
1646352658.6208212,18171,1646352658,615995883,,-0.007742410611988196,0.005549633107059693,0.9984266215689677,0.05525882728279494,-0.00486,0.000953,0.089943,0.167,0.497,-9.332,-3.613e-05,1.85e-06,1.674e-05
1646352658.6457784,18172,1646352658,640923023,,-0.007761809033193884,0.005462693344706133,0.9984904445250141,0.05409940382475165,-0.008819,-0.000342,0.094651,-0.044,0.391,-9.099,-3.622e-05,1.4900000000000001e-06,1.664e-05
1646352658.671279,18173,1646352658,665896892,,-0.0077841595552891,0.0053228885716578925,0.9985568884808818,0.052869785176896424,-0.009154,0.001632,0.101814,0.09,0.361,-9.298,-3.562e-05,1.2000000000000002e-06,1.6080000000000002e-05
1646352658.6973445,18174,1646352658,691002845,,-0.007817189059869384,0.005147878314908259,0.9986268614591904,0.05154398583951729,-0.01315,0.002829,0.106991,0.14,0.508,-9.358,-3.553e-05,1.3800000000000001e-06,1.559e-05
1646352658.7207289,18175,1646352658,715773582,,-0.0078082887677439075,0.00493519587796302,0.998699084586171,0.050147910374309726,-0.016435,-0.00122,0.115336,0.267,0.573,-9.661,-3.587e-05,1.6600000000000002e-06,1.675e-05
1646352658.745952,18176,1646352658,740852117,,-0.007781323651708376,0.004729803548172537,0.9987732425439217,0.04867329800746719,-0.015576,-0.001772,0.120382,0.155,0.535,-9.599,-3.51e-05,9.2e-07,1.612e-05
1646352658.7710817,18177,1646352658,766030788,,-0.007745408100127708,0.004523481972324281,0.9988489586127548,0.0471201086843405,-0.014271,-0.001819,0.126789,0.119,0.63,-9.351,-3.587e-05,1.4800000000000002e-06,1.656e-05
1646352658.7957249,18178,1646352658,790976762,,-0.007699263047135602,0.004342500637091693,0.9989253546172845,0.04549725199921874,-0.015029,-0.004864,0.131164,0.048,0.536,-9.146,-3.5010000000000005e-05,1.56e-06,1.581e-05
1646352658.8220005,18179,1646352658,815994739,,-0.007652422570553609,0.004169931625400768,0.999001723756976,0.04381333164268132,-0.011757,-0.007442,0.136385,-0.079,0.478,-9.199,-3.4920000000000004e-05,1.92e-06,1.581e-05
1646352658.845958,18180,1646352658,840918779,,-0.0076214972277026385,0.0040241568793221785,0.9990764517622124,0.0420946846483779,-0.008575,-0.002012,0.137736,0.042,0.45,-9.718,-3.5010000000000005e-05,1.65e-06,1.601e-05
1646352658.870651,18181,1646352658,865753650,,-0.007606996997805168,0.003896311250201373,0.9991497588671908,0.040332514314773464,-0.00612,-0.003341,0.141879,0.127,0.499,-9.549,-3.5260000000000005e-05,2.19e-06,1.6780000000000002e-05
1646352658.8962102,18182,1646352658,890941381,,-0.0076172857114319105,0.0037955644270956696,0.9992203119747847,0.038553064548543424,-0.004293,0.002867,0.143358,0.205,0.525,-10.048,-3.4830000000000004e-05,1.91e-06,1.621e-05
1646352658.9207773,18183,1646352658,916020154,,-0.0076525682797379336,0.003721649069701163,0.9992886676910007,0.036738891535682494,-0.004594,0.004726,0.145889,0.213,0.404,-9.735,-3.5010000000000005e-05,1.46e-06,1.631e-05
1646352658.9475598,18184,1646352658,941176652,,-0.007704471975363912,0.0036656017431501275,0.9993538277876957,0.03491606165537443,-0.004104,0.003585,0.146523,0.209,0.499,-9.82,-3.5e-05,2.1000000000000002e-06,1.6000000000000003e-05
1646352658.971007,18185,1646352658,965929508,,-0.0077821355663810505,0.003618828337670148,0.9994159958237827,0.03307581804046305,-0.00227,0.007924,0.148713,0.193,0.558,-9.581,-3.509e-05,2.0100000000000002e-06,1.6100000000000002e-05
1646352658.9960933,18186,1646352658,990809917,,-0.007859536397015154,0.0035801606095877004,0.9994760999886325,0.031191917048278242,-0.00258,0.008252,0.15143,0.076,0.433,-9.217,-3.491e-05,2.28e-06,1.6400000000000002e-05
1646352659.020647,18187,1646352659,15921592,,-0.007945123050455737,0.003558706468326081,0.9995332815399539,0.029281900927989747,-0.001399,0.006929,0.155249,0.103,0.438,-9.281,-3.56e-05,2.65e-06,1.616e-05
1646352659.046143,18188,1646352659,41088104,,-0.0080228334081702,0.003510110692508286,0.9995884024920193,0.02731920332813829,-0.004754,0.004886,0.158371,0.057,0.413,-9.016,-3.508e-05,2.73e-06,1.6289999999999998e-05
1646352659.07158,18189,1646352659,65874099,,-0.008075056349138781,0.003433967863030808,0.9996412960711605,0.025303764914421892,-0.008041,0.005297,0.163529,0.222,0.38,-9.274,-3.516e-05,3.01e-06,1.6380000000000002e-05
1646352659.095872,18190,1646352659,90945720,,-0.008127644317426998,0.0033396137250528944,0.9996918023085046,0.023218285362841783,-0.010693,0.006655,0.169307,0.163,0.339,-9.372,-3.5e-05,2.28e-06,1.6400000000000002e-05
1646352659.1208549,18191,1646352659,116056203,,-0.008146277567065754,0.0031914758276281006,0.9997396968161301,0.02107109996735297,-0.013322,0.004294,0.173683,0.141,0.422,-9.479,-3.482e-05,2.46e-06,1.561e-05
1646352659.1458194,18192,1646352659,141016006,,-0.008173578331420035,0.003025418492749892,0.9997842617526067,0.01885389646728743,-0.013019,0.005097,0.18115,0.229,0.428,-9.523,-3.4660000000000004e-05,1.8200000000000002e-06,1.5240000000000001e-05
1646352659.1715066,18193,1646352659,166101694,,-0.008183436400213467,0.002823709421575307,0.9998248558770289,0.016592637049744383,-0.016343,0.003142,0.182201,0.21,0.375,-9.43,-3.508e-05,2.46e-06,1.6289999999999998e-05
1646352659.197463,18194,1646352659,190855741,,-0.008210533279025498,0.0025868182402969475,0.9998611221344247,0.014269967020099111,-0.019003,0.000745,0.186528,0.288,0.373,-9.544,-3.439e-05,2.2700000000000003e-06,1.594e-05
1646352659.2205744,18195,1646352659,216012477,,-0.008245901477642245,0.0023060051729470884,0.9998923904671712,0.01191196603459376,-0.023434,0.001157,0.190039,0.167,0.328,-9.431,-3.508e-05,2.83e-06,1.599e-05
1646352659.246089,18196,1646352659,240910530,,-0.008297763012712744,0.0019987399527478756,0.9999182690224101,0.009518794189019523,-0.023759,0.007824,0.192775,0.256,0.309,-9.701,-3.413e-05,2.6300000000000002e-06,1.5550000000000002e-05
1646352659.271352,18197,1646352659,265906095,,-0.008356956993922549,0.0016911576778934714,0.9999383861692188,0.007108102475928912,-0.024785,0.008637,0.192438,0.239,0.284,-9.538,-3.457e-05,2.36e-06,1.612e-05
1646352659.2955742,18198,1646352659,290891170,,-0.008414716471820259,0.0013833036322185978,0.9999526058911405,0.004697338531281116,-0.025132,0.008243,0.191676,0.291,0.332,-9.7,-3.422e-05,2.4500000000000003e-06,1.5550000000000002e-05
1646352659.321377,18199,1646352659,315934896,,-0.008462332929587063,0.0010750154772202682,0.9999610415666378,0.002269055327106474,-0.02396,0.005799,0.193666,0.086,0.36,-9.285,-3.379e-05,1.99e-06,1.568e-05
1646352659.3453555,18200,1646352659,341141939,,0.008508503323906545,-0.0008189384614877901,-0.9999634554235695,0.00015009443184145244,-0.020787,0.004649,0.192791,0.186,0.371,-9.416,-3.344e-05,2.16e-06,1.55e-05
1646352659.3706944,18201,1646352659,366051435,,0.008544825384013154,-0.0005888474203216521,-0.9999600188146202,0.0025690445961105736,-0.016496,-0.000116,0.192586,0.161,0.462,-9.43,-3.353e-05,2.43e-06,1.539e-05
1646352659.3961973,18202,1646352659,390769720,,0.00855416311871314,-0.00041114960826241285,-0.9999509330421678,0.00497883093068088,-0.015705,0.000374,0.194323,0.187,0.466,-9.482,-3.344e-05,2.6100000000000004e-06,1.5090000000000001e-05
1646352659.421397,18203,1646352659,416115283,,0.008562952083064778,-0.0002683155079617982,-0.9999360064518856,0.007388292053374157,-0.007209,-0.000167,0.193217,0.194,0.55,-9.391,-3.3350000000000004e-05,2.7e-06,1.599e-05
1646352659.445506,18204,1646352659,440753936,,0.008562633045401209,-0.00015170543370355568,-0.9999153301555687,0.009797490529290518,-0.006935,0.00055,0.192376,0.233,0.58,-9.448,-3.3010000000000004e-05,2.1499999999999997e-06,1.552e-05
1646352659.4710217,18205,1646352659,465977430,,0.008527326492063222,-7.027906898414597e-05,-0.9998889231384901,0.01222379436595374,-0.007175,-0.003033,0.193268,0.186,0.502,-9.041,-3.292e-05,2.51e-06,1.5720000000000002e-05
1646352659.4955478,18206,1646352659,490914106,,0.0084832058836617,-6.381789281606292e-06,-0.9998563139911569,0.0146760535984604,-0.004643,-0.004008,0.195735,0.241,0.576,-8.982,-3.318e-05,2.52e-06,1.531e-05
1646352659.519249,18207,1646352659,515937328,,0.008430098353496356,5.714897296696869e-05,-0.9998177604440305,0.017128224555647182,-0.003643,-0.00728,0.196976,0.137,0.611,-9.093,-3.3010000000000004e-05,2.51e-06,1.591e-05
1646352659.5441,18208,1646352659,541465759,,0.008368858202702011,7.684390056570992e-05,-0.9997727527409719,0.019606100686720244,-0.001045,-0.006071,0.199248,0.202,0.537,-9.287,-3.292e-05,2.69e-06,1.571e-05
1646352659.570951,18209,1646352659,566144227,,0.008308341811924998,6.155628008243277e-05,-0.9997210245855322,0.022109741491348252,0.001511,-0.002874,0.20116,0.21,0.5,-9.353,-3.308e-05,3.24e-06,1.5700000000000002e-05
1646352659.5955532,18210,1646352659,590958118,,0.008239659964415816,2.851968882075341e-05,-0.999662449546862,0.024639280757885983,0.001648,-0.004281,0.201826,0.244,0.455,-9.449,-3.292e-05,2.33e-06,1.523e-05
1646352659.6203904,18211,1646352659,615735530,,0.008189119934473374,-2.1621478582938377e-05,-0.9995966119564742,0.027194690885322628,0.002816,-0.003442,0.205383,0.185,0.504,-9.41,-3.3e-05,2.9700000000000004e-06,1.58e-05
1646352659.6462138,18212,1646352659,640712022,,0.008148392652426064,-9.785721733278989e-05,-0.9995239014444462,0.02975843682756008,0.006351,-0.002978,0.206368,0.158,0.357,-9.319,-3.266e-05,2.6e-06,1.573e-05
1646352659.6709776,18213,1646352659,665978431,,0.008108960326043354,-0.00020032537833724365,-0.999444034933287,0.032339228012489625,0.009219,-0.001332,0.2068,0.231,0.432,-9.526,-3.283e-05,3.05e-06,1.542e-05
1646352659.6966434,18214,1646352659,691069364,,0.008061088672799371,-0.00029451059413267676,-0.9993572554524702,0.03492861416411044,0.005584,-0.003468,0.208252,0.234,0.333,-9.462,-3.265e-05,3.3200000000000004e-06,1.5620000000000003e-05
1646352659.720519,18215,1646352659,716156005,,0.008031527759519267,-0.00039700984027841156,-0.9992636087426334,0.037517691662520634,0.002817,-0.001949,0.207532,0.213,0.324,-9.411,-3.257e-05,2.69e-06,1.5640000000000003e-05
1646352659.7458026,18216,1646352659,741116762,,0.00799242901012432,-0.0004652060078892899,-0.9991636739647155,0.04009809585529242,0.001074,-0.002558,0.206931,0.248,0.39,-9.646,-3.274e-05,3.14e-06,1.5320000000000002e-05
1646352659.770644,18217,1646352659,766070604,,0.007962827212388337,-0.000541952136372034,-0.9990569924796275,0.0426781612564222,0.003824,0.0012,0.206442,0.241,0.323,-9.649,-3.24e-05,2.68e-06,1.535e-05
1646352659.796522,18218,1646352659,791142225,,0.007951499678580096,-0.0006268503413155424,-0.998943890373055,0.04524913919465171,0.004759,0.004671,0.20409,0.22,0.344,-9.694,-3.222e-05,2.86e-06,1.5260000000000003e-05
1646352659.8211825,18219,1646352659,815950870,,0.007931117103185139,-0.0006947252568208438,-0.998823823958041,0.04782868837998418,0.004783,0.003159,0.205648,0.213,0.402,-9.624,-3.222e-05,2.86e-06,1.5260000000000003e-05
1646352659.8457298,18220,1646352659,840968132,,0.007946865587094737,-0.0007785181363355552,-0.99869768144605,0.05039029977223824,0.006766,0.002302,0.205061,0.189,0.396,-9.553,-3.222e-05,3.04e-06,1.4860000000000002e-05
1646352659.8705044,18221,1646352659,866068840,,0.00799796001608653,-0.0008603152094322105,-0.9985642224802967,0.05296023107617231,0.008316,0.005073,0.206085,0.187,0.351,-9.657,-3.214e-05,2.95e-06,1.5260000000000003e-05
1646352659.8966258,18222,1646352659,891606807,,0.008065499814385412,-0.0009147453673977123,-0.9984240243653688,0.0555299786036198,0.008095,0.010123,0.206875,0.297,0.456,-9.868,-3.196e-05,3.13e-06,1.527e-05
1646352659.9227304,18223,1646352659,916406631,,0.008132383211676067,-0.00095119677262542,-0.9982756992174482,0.0581256218883986,0.003024,0.008806,0.208507,0.401,0.448,-9.802,-3.187e-05,3.6700000000000004e-06,1.497e-05
1646352659.9465663,18224,1646352659,940995931,,0.008217477946719775,-0.000994812667129482,-0.9981194104015642,0.060738175668901995,0.003886,0.006848,0.20975,0.173,0.375,-9.157,-3.205e-05,3.13e-06,1.5260000000000003e-05
1646352659.9706056,18225,1646352659,965831279,,0.008301777156231732,-0.0010203540202493137,-0.9979546331631188,0.06337656918757059,0.007388,0.003568,0.211951,0.251,0.478,-9.257,-3.221e-05,3.68e-06,1.5240000000000001e-05
1646352659.9952128,18226,1646352659,990842342,,0.008385719282121305,-0.0010365292842270846,-0.9977811538448559,0.06604070223121862,0.002336,0.003524,0.214279,0.292,0.368,-9.399,-3.205e-05,3.22e-06,1.5060000000000001e-05
1646352660.0213392,18227,1646352660,15763521,,0.008468043467041062,-0.0010258504650246373,-0.9975981831674199,0.06873939781323739,-0.003712,0.005333,0.217956,0.453,0.419,-9.42,-3.1950000000000004e-05,3.85e-06,1.5160000000000002e-05
1646352660.0463722,18228,1646352660,41492938,,0.008532374326484444,-0.0010069791344908168,-0.9974055667008317,0.0714725128673118,-0.003491,0.005679,0.220669,0.458,0.334,-9.343,-3.2040000000000005e-05,3.95e-06,1.515e-05
1646352660.071753,18229,1646352660,66026210,,0.008593451751803486,-0.0009440266341973542,-0.997203557745804,0.0742315688896191,-0.004408,0.007107,0.22122,0.432,0.345,-9.371,-3.221e-05,3.68e-06,1.544e-05
1646352660.09577,18230,1646352660,91094732,,0.008648884911385792,-0.0008109899909014623,-0.9969926265196142,0.07700806289308589,-0.015151,0.007221,0.223067,0.453,0.333,-9.519,-3.1950000000000004e-05,3.6700000000000004e-06,1.546e-05
1646352660.1207619,18231,1646352660,115799188,,0.008702958890596583,-0.0006688025868930571,-0.9967725623330872,0.0798014422775699,-0.009405,0.006133,0.224433,0.398,0.44,-9.506,-3.187e-05,3.49e-06,1.527e-05
1646352660.1468902,18232,1646352660,141396999,,0.008757029048919349,-0.0005349397029137826,-0.9965439285319955,0.08260282554348575,-0.00773,0.002919,0.22583,0.459,0.354,-9.21,-3.1950000000000004e-05,3.9399999999999995e-06,1.535e-05
1646352660.1727154,18233,1646352660,166515350,,0.008793022780267796,-0.00040234685099114467,-0.9963083012891403,0.08539490412047421,-0.007457,-0.002743,0.2234,0.377,0.416,-9.215,-3.187e-05,3.7600000000000004e-06,1.5160000000000002e-05
1646352660.1955714,18234,1646352660,190783739,,0.00883780144969266,-0.00027755716219330783,-0.9960655293809444,0.08817753345731809,-0.009185,-0.001178,0.223757,0.67,0.321,-9.481,-3.169e-05,4.12e-06,1.517e-05
1646352660.22103,18235,1646352660,215747356,,0.008857467005318177,-0.000172360691167221,-0.9958159914463177,0.09095068306411547,-0.009589,-0.001563,0.220915,0.561,0.26,-9.538,-3.16e-05,4.03e-06,1.4979999999999999e-05
1646352660.2464592,18236,1646352660,240948677,,0.008857602280034427,-5.1549704732828535e-05,-0.9955613317941046,0.0936972510846801,-0.011705,-0.001888,0.220035,0.595,0.289,-9.595,-3.169e-05,3.7600000000000004e-06,1.527e-05
1646352660.2713501,18237,1646352660,265950918,,0.008866666839214832,6.12613401350904e-05,-0.9953006950786518,0.096425644110698,-0.009866,0.004352,0.218259,0.542,0.286,-9.531,-3.1519999999999996e-05,4.12e-06,1.4979999999999999e-05
1646352660.2971852,18238,1646352660,291751861,,0.008875184087413534,0.00017388863096648422,-0.9950351683646208,0.09912726460338384,-0.005528,0.001392,0.21755,0.402,0.346,-9.27,-3.126e-05,4.0200000000000005e-06,1.49e-05
1646352660.3206942,18239,1646352660,316282987,,0.008901408092552647,0.0002795807343807786,-0.9947630383308517,0.10181937114004917,-0.005235,0.004013,0.215359,0.534,0.415,-9.345,-3.133000000000001e-05,4.84e-06,1.508e-05
1646352660.3458369,18240,1646352660,340821027,,0.008915721107296869,0.00041030534346681903,-0.994486419000427,0.10448494623805359,-0.015039,-0.00093,0.214831,0.451,0.292,-9.158,-3.134e-05,4.39e-06,1.508e-05
1646352660.3707354,18241,1646352660,366339683,,0.00894675419711232,0.0005429000011773742,-0.9942034254048107,0.10714107411383457,-0.013047,0.001414,0.213135,0.593,0.373,-9.55,-3.134e-05,4.66e-06,1.518e-05
1646352660.3954573,18242,1646352660,390857696,,0.009003162953549835,0.0006785370702348205,-0.9939130903451364,0.10979640925302121,-0.00998,0.004772,0.212667,0.555,0.311,-9.587,-3.117e-05,4.2000000000000004e-06,1.5e-05
1646352660.4213893,18243,1646352660,415730953,,0.009050260939662089,0.0008132600464465475,-0.993618668230738,0.11242496843849042,-0.008795,0.003424,0.210257,0.347,0.31,-9.553,-3.108e-05,4.4699999999999996e-06,1.5e-05
1646352660.445843,18244,1646352660,440878868,,0.009117057674709822,0.0009242390346679003,-0.9933171444628133,0.11505249044590576,-0.007089,0.006802,0.2119,0.591,0.341,-9.647,-3.0980000000000005e-05,5.01e-06,1.5490000000000002e-05
1646352660.470639,18245,1646352660,465906620,,0.009176745092863358,0.001016977748733636,-0.993011837188975,0.11765306756874698,-0.006156,0.00411,0.209599,0.482,0.332,-9.297,-3.116e-05,4.56e-06,1.539e-05
1646352660.4955788,18246,1646352660,490775108,,0.00923706793991168,0.0011012912126969832,-0.99270077087627,0.1202440985462389,-0.00467,0.002195,0.20807,0.525,0.413,-9.723,-3.0730000000000006e-05,4.83e-06,1.561e-05
1646352660.5214622,18247,1646352660,516236543,,0.009309980788289084,0.0011521946489806937,-0.9923850387293686,0.12281665852530788,-0.004185,0.004008,0.206642,0.461,0.351,-9.56,-3.116e-05,4.74e-06,1.558e-05
1646352660.5473206,18248,1646352660,541719436,,0.009372971357199717,0.0012108010011663776,-0.9920659867785815,0.12536251132580242,-0.004226,0.001136,0.205968,0.354,0.25,-9.43,-3.0730000000000006e-05,4.3700000000000005e-06,1.551e-05
1646352660.5702634,18249,1646352660,565760374,,0.009435733082383872,0.001269655546812346,-0.9917415139277145,0.12789888376508737,-0.001214,0.004842,0.205365,0.53,0.26,-9.658,-3.0730000000000006e-05,4.4600000000000005e-06,1.5220000000000002e-05
1646352660.5953526,18250,1646352660,590798854,,0.009487373376912508,0.0013446726565896387,-0.9914151625968838,0.13039998840049033,-0.00776,0.001007,0.201617,0.494,0.188,-9.225,-3.0730000000000006e-05,4.56e-06,1.4920000000000001e-05
1646352660.6206768,18251,1646352660,615757942,,0.009524272713720416,0.0014618760852900307,-0.9910848374511915,0.13288339295010196,-0.011972,0.002726,0.198767,0.437,0.3,-9.484,-3.0640000000000005e-05,5.1e-06,1.541e-05
1646352660.6460893,18252,1646352660,640748023,,0.009566941413936603,0.0015976616680038998,-0.9907493495295852,0.1353574804577905,-0.013686,0.004914,0.198091,0.522,0.219,-9.369,-3.0550000000000004e-05,5.19e-06,1.551e-05
1646352660.6704452,18253,1646352660,665904998,,0.009595583338285219,0.0017667863049486805,-0.9904113008848885,0.13780514622485412,-0.010924,0.00124,0.197358,0.41,0.319,-9.283,-3.056e-05,4.4600000000000005e-06,1.552e-05
1646352660.6957073,18254,1646352660,690775871,,0.009601272175991781,0.001968173289405235,-0.9900672836694018,0.14025232858672237,-0.013759,0.000482,0.197317,0.643,0.183,-9.562,-3.15e-05,5.11e-06,1.2980000000000001e-05
1646352660.720295,18255,1646352660,715860366,,0.00959242564001834,0.0022028166726385783,-0.9897184413725336,0.14269036329118492,-0.02318,-0.000643,0.196742,0.491,0.128,-9.461,-3.099e-05,4.92e-06,1.3510000000000001e-05
1646352660.7455568,18256,1646352660,740743637,,0.0095911371127541,0.002438609554156151,-0.9893647299702629,0.14511889733317074,-0.015698,0.002819,0.195163,0.557,0.342,-9.44,-3.081e-05,5.01e-06,1.3420000000000002e-05
1646352660.7684796,18257,1646352660,765839576,,0.009593968850226165,0.002639633872438359,-0.9890089679579447,0.1475203355252464,-0.012618,-0.000462,0.193194,0.408,0.303,-9.154,-3.0890000000000004e-05,5.46e-06,1.3900000000000002e-05
1646352660.7935636,18258,1646352660,790741205,,0.009581291931833665,0.0028206465064277847,-0.9886501842576361,0.14990348883713428,-0.010695,-0.000796,0.192465,0.339,0.401,-9.277,-3.0550000000000004e-05,5e-06,1.4130000000000002e-05
1646352660.8211246,18259,1646352660,815835714,,0.009563238747131053,0.0029741600347194972,-0.9882897846782485,0.15225964776451587,-0.009243,-0.002892,0.189802,0.579,0.327,-9.697,-3.028e-05,5.72e-06,1.473e-05
1646352660.8463144,18260,1646352660,841099262,,0.00952872382260993,0.0031159508727231387,-0.9879293513893839,0.1545803704738169,-0.017272,-0.004784,0.185784,0.468,0.235,-9.416,-2.994e-05,5.1700000000000005e-06,1.4950000000000001e-05
1646352660.8719702,18261,1646352660,866053581,,0.009501015935155495,0.0032670849382820232,-0.987571551893649,0.15684861090419552,-0.012766,-0.000184,0.181887,0.369,0.277,-9.668,-2.995e-05,4.9900000000000005e-06,1.505e-05
1646352660.896273,18262,1646352660,890875101,,0.009464168637471975,0.003416388904149205,-0.9872141691242698,0.15908155794791112,-0.012792,-0.00348,0.181011,0.479,0.263,-9.447,-2.995e-05,4.9900000000000005e-06,1.4950000000000001e-05
1646352660.921774,18263,1646352660,916024208,,0.00940255824013442,0.003605458855448649,-0.9868573705044988,0.16127964175905393,-0.013366,-0.003337,0.175713,0.337,0.334,-9.311,-2.986e-05,5.1700000000000005e-06,1.545e-05
1646352660.9467065,18264,1646352660,941078186,,0.009334529351359871,0.003775301005663225,-0.9865015081682996,0.16344230800430995,-0.01209,-0.008309,0.175594,0.522,0.404,-9.578,-2.96e-05,5.08e-06,1.527e-05
1646352660.9733272,18265,1646352660,966040611,,0.009277331980345638,0.003929014138513992,-0.9861423088581042,0.16559541249452936,-0.012417,-0.006198,0.172567,0.501,0.413,-9.555,-2.986e-05,5.2600000000000005e-06,1.4860000000000002e-05
1646352660.9955215,18266,1646352660,990856170,,0.009239962126458704,0.004014815635801763,-0.9857844414364225,0.16771266910162935,-0.003291,-0.002932,0.171403,0.378,0.549,-9.829,-2.9680000000000004e-05,5.44e-06,1.5260000000000003e-05
1646352661.0213232,18267,1646352661,15787839,,0.009231357224726046,0.004034561745390419,-0.9854236141802613,0.16981991924160122,-0.000234,-0.001794,0.171222,0.501,0.42,-9.362,-2.959e-05,5.62e-06,1.5060000000000001e-05
1646352661.0458217,18268,1646352661,40802001,,0.009232806790986479,0.004047193093331794,-0.9850582300004777,0.17192631856452928,-0.001598,0.001253,0.170585,0.387,0.381,-9.425,-2.9420000000000003e-05,5.71e-06,1.527e-05
1646352661.070815,18269,1646352661,66090583,,0.009241354394423909,0.004069879807954398,-0.9846897384692422,0.17402342486194428,-0.001375,0.000983,0.16992,0.533,0.443,-9.728,-2.951e-05,5.71e-06,1.5070000000000001e-05
1646352661.096325,18270,1646352661,91110467,,0.009267968178256952,0.0041400988735500015,-0.9843178746441771,0.17611157259854993,-0.006104,0.002764,0.168317,0.499,0.409,-9.679,-2.959e-05,5.62e-06,1.5160000000000002e-05
1646352661.1204762,18271,1646352661,115750312,,0.009302912099552717,0.004212003487777432,-0.9839414893647654,0.17819893478843832,-0.002507,0.000835,0.169334,0.288,0.464,-9.324,-2.951e-05,5.71e-06,1.497e-05
1646352661.1456873,18272,1646352661,140759944,,0.009337592496453415,0.004284074620428836,-0.9835606722031406,0.18028549627278112,-0.002828,0.001511,0.168751,0.383,0.418,-9.233,-2.9680000000000004e-05,5.62e-06,1.4960000000000002e-05
1646352661.1712139,18273,1646352661,165807008,,0.009399378006981917,0.0043524227693831265,-0.9831767840519515,0.1823626041993823,-0.001428,0.002682,0.169075,0.435,0.558,-9.596,-2.8990000000000002e-05,5.3400000000000005e-06,1.52e-05
1646352661.1957912,18274,1646352661,190795421,,0.00947057327675629,0.004369591990439597,-0.9827887312893047,0.18443840315510615,0.001983,0.002121,0.169128,0.569,0.331,-9.18,-2.9420000000000003e-05,5.53e-06,1.4580000000000003e-05
1646352661.220457,18275,1646352661,215842962,,0.009533202691850932,0.004385370955115391,-0.9823980090810384,0.18650479436634929,0.001961,0.004887,0.169717,0.562,0.361,-9.468,-2.9330000000000002e-05,5.62e-06,1.5470000000000003e-05
1646352661.244616,18276,1646352661,241037845,,0.009597794584178186,0.0044373562104295695,-0.9820026911617245,0.18857069433003798,-0.004821,0.003636,0.167827,0.502,0.157,-9.373,-2.9160000000000005e-05,5.4300000000000005e-06,1.5190000000000002e-05
1646352661.2686255,18277,1646352661,265762805,,0.00966943960390024,0.004544186499790253,-0.9816059265891105,0.19061914172489475,-0.010627,0.005601,0.168167,0.239,0.207,-9.352,-2.907e-05,5.7900000000000005e-06,1.529e-05
1646352661.2963843,18278,1646352661,290736675,,0.009732355497611665,0.004693977635808198,-0.9812080312222816,0.1926500643532639,-0.005468,0.0115,0.165343,0.57,0.323,-9.774,-2.9420000000000003e-05,5.71e-06,1.5070000000000001e-05
1646352661.3206387,18279,1646352661,315707445,,0.009832411772759071,0.004833551230441486,-0.9808090090451237,0.19466290924867022,-0.009467,0.009563,0.161998,0.573,0.247,-9.313,-2.925e-05,5.71e-06,1.4979999999999999e-05
1646352661.3459218,18280,1646352661,340875864,,0.009950893682410672,0.0049681694303010645,-0.9804108254010376,0.1966492065681659,-0.009008,0.006193,0.160123,0.293,0.243,-9.487,-2.9160000000000005e-05,5.61e-06,1.5090000000000001e-05
1646352661.3709407,18281,1646352661,366458415,,0.010079446780788794,0.005051621317032466,-0.9800157839301816,0.198599972614233,0.000543,0.013087,0.160245,0.63,0.409,-9.749,-2.907e-05,6.0600000000000004e-06,1.538e-05
1646352661.3974452,18282,1646352661,391397953,,0.010245692610523513,0.005080832439156754,-0.9796203495149356,0.20053224613735157,0.004568,0.011633,0.157187,0.556,0.348,-9.36,-2.898e-05,6.0600000000000004e-06,1.5090000000000001e-05
1646352661.4218118,18283,1646352661,415832281,,0.010405260854676338,0.00510004406713448,-0.9792282889667642,0.20242944001375648,0.002545,0.006867,0.154588,0.517,0.341,-9.699,-2.9330000000000002e-05,5.8e-06,1.5470000000000003e-05
1646352661.4457583,18284,1646352661,440809488,,0.010558166988817758,0.005109292160336785,-0.9788380243266279,0.20430012818351415,-0.000828,0.007259,0.151021,0.477,0.134,-9.574,-2.8990000000000002e-05,5.7000000000000005e-06,1.5490000000000002e-05
1646352661.4710343,18285,1646352661,465795755,,0.010705991642966947,0.005144105016940889,-0.9784566208590018,0.20611055534275574,0.001252,0.015808,0.145957,0.41,0.42,-9.601,-2.9060000000000003e-05,6.700000000000001e-06,1.508e-05
1646352661.4957728,18286,1646352661,491045475,,0.010871554652530844,0.005138145304030681,-0.978081037079127,0.20787711193994152,0.005748,0.013732,0.142451,0.482,0.284,-9.211,-2.8710000000000005e-05,6.87e-06,1.5190000000000002e-05
1646352661.5208156,18287,1646352661,515873432,,0.011063740556851021,0.00509302587040877,-0.9777168816282226,0.20957422100906978,0.007474,0.012894,0.136374,0.289,0.204,-9.336,-2.8810000000000004e-05,6.15e-06,1.52e-05
1646352661.5462797,18288,1646352661,540925264,,0.011283297393136422,0.004964650836577711,-0.9773592927948014,0.21122701586126424,0.018182,0.014872,0.13654,0.481,0.242,-9.458,-2.8810000000000004e-05,6.15e-06,1.54e-05
1646352661.5702543,18289,1646352661,565716981,,0.011481750541141363,0.004813709810032129,-0.9770122662429735,0.21281924070239697,0.017215,0.015147,0.129998,0.654,0.153,-9.47,-2.889e-05,6.4199999999999995e-06,1.568e-05
1646352661.595755,18290,1646352661,590880155,,0.011662052128178583,0.004667601744959766,-0.9766739945472771,0.2143597872950417,0.013102,0.005384,0.125079,0.528,0.073,-9.544,-2.88e-05,6.88e-06,1.5090000000000001e-05
1646352661.620441,18291,1646352661,615901231,,0.011828947901602995,0.004545030216836095,-0.9763464241763888,0.21584040096758664,0.008559,0.007305,0.120908,0.592,-0.047,-9.584,-2.889e-05,6.4199999999999995e-06,1.4890000000000001e-05
1646352661.6468313,18292,1646352661,640969276,,0.011969024696823085,0.0044251793366048685,-0.9760282432151757,0.2172694840099348,0.011228,0.007804,0.117106,0.658,-0.055,-9.492,-2.88e-05,6.6e-06,1.45e-05
1646352661.6708932,18293,1646352661,665698766,,0.012084158425798327,0.004299392335976312,-0.9757197234951135,0.2186469975172331,0.009601,0.00262,0.111125,0.359,-0.14,-9.133,-2.898e-05,6.519999999999999e-06,1.4979999999999999e-05
1646352661.695894,18294,1646352661,690716266,,0.012142296072474842,0.004151142083415544,-0.9754254069349271,0.2199559232467348,0.010784,0.000649,0.106668,0.524,-0.09,-9.45,-2.8720000000000003e-05,6.6e-06,1.49e-05
1646352661.72066,18295,1646352661,715881824,,0.012163128090268793,0.004011822113630721,-0.9751393336920132,0.2212221586665427,0.006882,0.001305,0.103576,0.67,-0.207,-9.238,-2.8270000000000002e-05,5.71e-06,1.5620000000000003e-05
1646352661.7458215,18296,1646352661,740999698,,0.012136219179441477,0.003887636959479337,-0.9748656311144043,0.2224288644371817,0.006115,-0.005493,0.095752,0.401,-0.294,-9.091,-2.819e-05,5.44e-06,1.621e-05
1646352661.770963,18297,1646352661,765786886,,0.012070693699773706,0.0038163341040198424,-0.9746041687508881,0.2235764929526428,-0.000602,-0.011562,0.091147,0.448,-0.451,-9.445,-2.8270000000000002e-05,6.25e-06,1.59e-05
1646352661.7954423,18298,1646352661,790744543,,0.011991924179480183,0.003803459479466098,-0.9743587583961941,0.22464803000936465,-0.005347,-0.006721,0.08621,0.453,-0.335,-9.702,-2.8270000000000002e-05,5.8e-06,1.571e-05
1646352661.8203957,18299,1646352661,815725564,,0.011930397800454361,0.003793730686608158,-0.9741237648556793,0.22566826085915903,0.005222,-0.002971,0.081697,0.239,-0.221,-9.548,-2.8020000000000003e-05,5.8800000000000005e-06,1.573e-05
1646352661.8454185,18300,1646352661,840742588,,0.011873091505526795,0.0037661543746015293,-0.9739016107620915,0.22662854704192015,0.002906,-0.005281,0.075983,0.351,-0.178,-9.398,-2.828e-05,5.44e-06,1.5720000000000002e-05
1646352661.871335,18301,1646352661,865844011,,0.011843654244531623,0.0037348958838218957,-0.9736980737597362,0.22750349351922575,-0.000576,-0.000641,0.071316,0.227,-0.106,-9.583,-2.818e-05,6.07e-06,1.581e-05
1646352661.8951669,18302,1646352661,890877246,,0.011858485268227845,0.003668254120535202,-0.9735094227414206,0.22830971085899157,0.000861,0.001837,0.064321,0.262,-0.301,-9.43,-2.8270000000000002e-05,5.71e-06,1.62e-05
1646352661.9209528,18303,1646352661,915755033,,0.011891703749997727,0.0036766530928325747,-0.9733374079558462,0.22904008356126643,-0.005807,0.001359,0.056429,0.182,-0.238,-9.416,-2.8360000000000003e-05,5.53e-06,1.561e-05
1646352661.9459438,18304,1646352661,940960884,,0.011931629379006542,0.0036948725491607777,-0.9731787384414916,0.2297109644371251,-0.003782,0.002183,0.054128,0.135,-0.293,-9.404,-2.777e-05,5.4300000000000005e-06,1.584e-05
1646352661.9703333,18305,1646352661,965736627,,0.01193672308549802,0.0037847156890647715,-0.9730356073971941,0.23031477874054568,-0.011238,0.004178,0.047563,0.431,-0.319,-9.632,-2.8270000000000002e-05,5.8e-06,1.542e-05
1646352661.9954464,18306,1646352661,990703105,,0.011918888230363085,0.0038953827859622885,-0.9729042984147938,0.23086791076786967,-0.009682,0.001508,0.043355,0.155,-0.236,-9.913,-2.819e-05,5.71e-06,1.5620000000000003e-05
1646352662.0216289,18307,1646352662,15731096,,0.011884127950346015,0.004001473656346033,-0.9727829773523298,0.23137855277655747,-0.006111,-0.000358,0.039701,0.184,-0.223,-9.336,-2.819e-05,5.71e-06,1.552e-05
1646352662.0461657,18308,1646352662,41000604,,0.011809056723049957,0.004088305999130584,-0.9726740953752923,0.23183816795175471,-0.005665,-0.002756,0.036246,0.233,-0.041,-9.76,-2.819e-05,5.53e-06,1.514e-05
1646352662.0703871,18309,1646352662,65789937,,0.011767313405607308,0.004110608363748193,-0.9725772222708263,0.2322459471208438,-0.004725,-0.002272,0.031408,0.241,-0.161,-9.537,-2.818e-05,6.24e-06,1.552e-05
1646352662.0959585,18310,1646352662,90978384,,0.011737984490796567,0.004081240512917163,-0.972494602001443,0.23259366344340632,-0.001613,-0.002766,0.025318,0.167,-0.217,-9.394,-2.8360000000000003e-05,5.8e-06,1.5220000000000002e-05
1646352662.1206868,18311,1646352662,115766048,,0.011723473334303108,0.004027813202222821,-0.9724240492215831,0.23289011440868035,0.003825,-0.000216,0.021763,-0.0,-0.214,-9.519,-2.844e-05,5.89e-06,1.599e-05
1646352662.146728,18312,1646352662,141132116,,0.01174076406739719,0.003954410577598639,-0.9723653935203369,0.23313527956990546,0.007425,0.001604,0.017448,0.06,-0.357,-9.12,-2.844e-05,6.34e-06,1.609e-05
1646352662.1697896,18313,1646352662,165819406,,0.011750219396125175,0.003914136535609686,-0.9723228246331634,0.23331295844146768,0.005292,0.001021,0.011126,0.209,-0.241,-9.644,-2.818e-05,6.3299999999999995e-06,1.581e-05
1646352662.196162,18314,1646352662,190941095,,0.011755515697067856,0.0038541411195221697,-0.9722946569077783,0.23343104676866025,0.002308,0.001664,0.007746,0.38,-0.206,-9.762,-2.8100000000000005e-05,5.71e-06,1.582e-05
1646352662.2208962,18315,1646352662,215790748,,0.011749834668407996,0.003728025696904123,-0.9722792467992365,0.23349755770281116,0.009808,-0.002512,0.002513,0.286,-0.212,-9.476,-2.8100000000000005e-05,5.9700000000000004e-06,1.523e-05
1646352662.2453427,18316,1646352662,241045236,,0.011759020259399575,0.0035776726780998593,-0.9722801063090054,0.23349586843560297,0.012752,-0.000648,-0.003685,0.046,-0.22,-9.741,-2.818e-05,6.16e-06,1.591e-05
1646352662.2717128,18317,1646352662,266020536,,0.011744660818688532,0.0033760282684661418,-0.9722957714376834,0.2334343552688517,0.017325,-0.003595,-0.00653,0.068,-0.392,-9.374,-2.759e-05,6.0500000000000005e-06,1.5160000000000002e-05
1646352662.295774,18318,1646352662,290920257,,0.011703319701101857,0.003212022412175918,-0.9723257100662743,0.23331401321848003,0.012183,-0.0058,-0.012118,0.214,-0.295,-9.657,-2.7850000000000003e-05,5.4300000000000005e-06,1.5640000000000003e-05
1646352662.321012,18319,1646352662,316083669,,0.011651925207258355,0.0030898432675633488,-0.9723676757359494,0.233143279318564,0.005158,-0.010411,-0.016432,0.161,-0.519,-9.546,-2.7510000000000003e-05,5.61e-06,1.566e-05
1646352662.3457434,18320,1646352662,341044902,,0.011533440266874171,0.0030228675160555133,-0.9724201572301441,0.2329310624199629,-0.00648,-0.01471,-0.017833,0.185,-0.282,-9.406,-2.7760000000000002e-05,5.9700000000000004e-06,1.5740000000000002e-05
1646352662.3716063,18321,1646352662,365946531,,0.011417372409356696,0.0029832342612598553,-0.9724764556904928,0.23270214233707742,-0.001184,-0.009476,-0.020898,-0.001,-0.282,-9.298,-2.7760000000000002e-05,5.8800000000000005e-06,1.5550000000000002e-05
1646352662.3965726,18322,1646352662,391043901,,0.0112718196114714,0.0029543469797594806,-0.9725369894367315,0.23245649505640464,-0.000315,-0.010879,-0.020699,0.065,-0.22,-8.847,-2.7510000000000003e-05,5.7000000000000005e-06,1.556e-05
1646352662.4207911,18323,1646352662,415787458,,0.011113712305757466,0.002940482184365173,-0.9725974872002308,0.23221103947725052,0.001067,-0.013199,-0.018614,0.05,-0.052,-9.231,-2.767e-05,5.8800000000000005e-06,1.5160000000000002e-05
1646352662.4464755,18324,1646352662,441122293,,0.010949109189277424,0.0029162809062301485,-0.9726559982290948,0.2319739671226073,-0.000717,-0.016332,-0.017414,0.098,-0.178,-9.354,-2.7839999999999998e-05,6.15e-06,1.485e-05
1646352662.4708955,18325,1646352662,465940237,,0.010767391473857793,0.0028885855944904143,-0.9727045040367083,0.23177935020362278,-0.000192,-0.016469,-0.013911,0.29,0.024,-9.594,-2.7600000000000003e-05,5.4300000000000005e-06,1.537e-05
1646352662.4955535,18326,1646352662,490845203,,0.01058566270979682,0.0028609633194238617,-0.9727529394202241,0.23158470908761028,-0.004587,-0.014067,-0.014119,0.019,0.06,-9.536,-2.7760000000000002e-05,6.0600000000000004e-06,1.535e-05
1646352662.523119,18327,1646352662,516273260,,0.010395334776531946,0.0028317577562424175,-0.9727933189034377,0.2314240196257258,-0.002936,-0.011511,-0.013163,0.124,-0.042,-9.433,-2.7500000000000004e-05,6.320000000000001e-06,1.5070000000000001e-05
1646352662.5436182,18328,1646352662,540977716,,0.010207407484165829,0.0028301912386027076,-0.9728314547161078,0.2312720466570632,-0.004601,-0.009026,-0.01019,0.107,0.038,-9.511,-2.767e-05,6.4100000000000005e-06,1.525e-05
1646352662.5682828,18329,1646352662,565554618,,0.010038848649733808,0.002860379240415489,-0.9728651595316382,0.23113723438223666,-0.002878,-0.009766,-0.011333,-0.049,0.053,-9.474,-2.7760000000000002e-05,5.8800000000000005e-06,1.5550000000000002e-05
1646352662.5950704,18330,1646352662,590708732,,0.009878763030267227,0.00289271649944834,-0.9728967177546194,0.23101086297950166,0.002496,-0.009276,-0.010264,0.115,0.153,-9.972,-2.7500000000000004e-05,5.9600000000000005e-06,1.566e-05
1646352662.6214714,18331,1646352662,616131782,,0.00974216782531381,0.0029395454603208596,-0.9729299653381157,0.23087600954998147,-0.003302,-0.007425,-0.011212,-0.027,0.127,-9.857,-2.767e-05,6.2300000000000005e-06,1.535e-05
1646352662.646465,18332,1646352662,640872001,,0.009653566890784337,0.002935284472719924,-0.9729569711390402,0.23076595299847433,-0.002509,-0.004814,-0.009612,0.066,0.041,-9.791,-2.767e-05,6.0600000000000004e-06,1.4960000000000002e-05
1646352662.6709466,18333,1646352662,665870904,,0.009638592071939156,0.00288536020270466,-0.9729915820689939,0.23062123376273835,0.002147,0.000688,-0.013341,-0.053,-0.206,-9.419,-2.767e-05,5.8800000000000005e-06,1.545e-05
1646352662.6959474,18334,1646352662,691214561,,0.00964954769262522,0.0028773659881787183,-0.9730277346051485,0.23046829431284105,-0.00293,0.001873,-0.013535,-0.045,-0.211,-9.256,-2.7839999999999998e-05,5.9700000000000004e-06,1.4950000000000001e-05
1646352662.7203393,18335,1646352662,715664625,,0.009703512902318061,0.002915054704023851,-0.973071279915912,0.23028162865551421,-0.006861,0.00671,-0.017221,0.059,-0.227,-9.175,-2.7930000000000002e-05,5.7900000000000005e-06,1.544e-05
1646352662.745805,18336,1646352662,741250276,,0.00976698461500376,0.0030264268079057697,-0.9731203356531932,0.23007011776961236,-0.013373,0.007922,-0.018499,0.12,-0.321,-9.33,-2.7930000000000002e-05,5.9700000000000004e-06,1.485e-05
1646352662.771122,18337,1646352662,765945196,,0.009803684691036284,0.0031756232779252165,-0.9731834047979048,0.22979961664291954,-0.01414,0.004699,-0.022217,0.159,-0.342,-9.334,-2.8100000000000005e-05,6.0600000000000004e-06,1.5129999999999999e-05
1646352662.7963765,18338,1646352662,791311264,,0.009815046911175898,0.0033186193504168,-0.9732506454867171,0.22951216237800323,-0.012435,0.002438,-0.025247,0.183,-0.325,-9.277,-2.8260000000000004e-05,6.510000000000001e-06,1.531e-05
1646352662.8205261,18339,1646352662,816115379,,0.009781682048628185,0.0034236995305081883,-0.9733284084972917,0.22918203723231337,-0.008043,0.000338,-0.027949,0.263,-0.209,-9.384,-2.852e-05,6.16e-06,1.53e-05
1646352662.8463767,18340,1646352662,841220378,,0.009749524892510185,0.0034479324142035256,-0.9734164854189544,0.22880866338722333,-0.006737,-0.003388,-0.032396,0.224,-0.279,-9.368,-2.8870000000000003e-05,6.08e-06,1.5090000000000001e-05
1646352662.8711078,18341,1646352662,866192340,,0.009700024980231946,0.003431805723813245,-0.9735147724538599,0.2283924693131679,-0.003904,-0.001436,-0.035705,0.079,-0.416,-9.367,-2.895e-05,6.53e-06,1.537e-05
1646352662.8956895,18342,1646352662,891005754,,0.009608209241442784,0.0034052725398902783,-0.9736252568986135,0.2279253069828155,-0.000197,-0.003331,-0.038831,0.117,-0.381,-9.499,-2.895e-05,5.99e-06,1.548e-05
1646352662.9207187,18343,1646352662,916344642,,0.009518561010124629,0.0033697493620486853,-0.9737494304433453,0.22739852351498283,0.001926,-0.001032,-0.044269,0.149,-0.356,-9.72,-2.895e-05,5.81e-06,1.528e-05
1646352662.9454448,18344,1646352662,940741300,,0.009427072279718089,0.003342329202571076,-0.9738851580493104,0.22682076200163942,-0.003501,-0.004255,-0.048566,0.116,-0.359,-9.542,-2.904e-05,6.17e-06,1.518e-05
1646352662.9704823,18345,1646352662,965916395,,0.009338306251044572,0.003342003789055798,-0.9740322055128651,0.22619215209812146,-0.005033,-0.00459,-0.053223,0.13,-0.38,-9.705,-2.895e-05,6.08e-06,1.5090000000000001e-05
1646352662.9961202,18346,1646352662,991067647,,0.009285692461384361,0.0033406797958186723,-0.9741903366236895,0.22551231408292796,-0.003707,-0.002397,-0.058229,0.135,-0.422,-9.717,-2.9110000000000004e-05,6.62e-06,1.497e-05
1646352663.0206397,18347,1646352663,16072511,,0.009220173506572156,0.0033180188778723536,-0.9743599898395096,0.22478120328707593,0.001794,-0.001452,-0.062115,0.007,-0.427,-9.748,-2.904e-05,5.9e-06,1.5570000000000002e-05
1646352663.0458906,18348,1646352663,40962934,,0.009160634042267569,0.0032695453590773278,-0.9745389506476074,0.22400720195509097,0.003075,-0.000128,-0.064374,0.016,-0.368,-9.789,-2.9120000000000002e-05,5.9e-06,1.537e-05
1646352663.0704947,18349,1646352663,65909385,,0.009134501025911311,0.003192509830851555,-0.9747288379778889,0.22318167753259205,0.002408,0.000758,-0.068436,0.182,-0.495,-9.696,-2.904e-05,5.81e-06,1.518e-05
1646352663.0958655,18350,1646352663,90870857,,0.009106494526332325,0.0031234723545073926,-0.974931573249087,0.22229652080037732,0.002446,-0.003858,-0.073773,0.122,-0.533,-9.702,-2.9199999999999998e-05,6.53e-06,1.536e-05
1646352663.121032,18351,1646352663,115952491,,0.009121052311375636,0.0030637504543006683,-0.9751427433555224,0.22136858385722308,0.004094,-0.001281,-0.078371,-0.059,-0.578,-9.516,-2.9120000000000002e-05,5.99e-06,1.4979999999999999e-05
1646352663.145549,18352,1646352663,140912055,,0.009151633999992052,0.0030516932848196994,-0.9753680325443086,0.220372720303285,-0.001129,0.004455,-0.083565,0.018,-0.52,-9.624,-2.913e-05,5.64e-06,1.5470000000000003e-05
1646352663.1701984,18353,1646352663,165709733,,0.0091927609750784,0.0030325763761769285,-0.9756018179407503,0.2193339678592461,0.003056,0.005007,-0.087365,0.045,-0.56,-9.49,-2.9120000000000002e-05,6.17e-06,1.546e-05
1646352663.1955342,18354,1646352663,190915584,,0.009228354741653991,0.0030382784056067194,-0.9758496541397123,0.21822708092373985,-0.002815,-8.1e-05,-0.092565,0.055,-0.642,-9.567,-2.9199999999999998e-05,6.44e-06,1.5070000000000001e-05
1646352663.220555,18355,1646352663,215510606,,0.009240472326310041,0.0030292179620325494,-0.9761078797206769,0.21706875559815111,-0.002689,0.000587,-0.095585,0.091,-0.673,-9.513,-2.929e-05,6.44e-06,1.5160000000000002e-05
1646352663.242863,18356,1646352663,240386962,,0.009228190172977165,0.0030498828534274167,-0.9763779803258078,0.21585082407905753,-0.006468,-0.003664,-0.101701,0.026,-0.678,-9.033,-2.9210000000000003e-05,5.82e-06,1.4779999999999999e-05
1646352663.2711742,18357,1646352663,266186237,,0.009200961367035394,0.0030578327513853176,-0.9766579920006506,0.21458135666931588,-0.00498,-0.000333,-0.105339,0.042,-0.672,-9.087,-2.9210000000000003e-05,5.82e-06,1.4680000000000002e-05
1646352663.2949333,18358,1646352663,290771722,,0.009153183133799427,0.003078627570350597,-0.9769494948428357,0.2132520241806161,-0.00294,-0.000584,-0.109821,-0.015,-0.599,-9.153,-2.946e-05,6e-06,1.5060000000000001e-05
1646352663.3206494,18359,1646352663,315780878,,0.009097139779917907,0.003097153207279049,-0.9772522126754033,0.21186260290778908,-0.002785,0.001297,-0.115957,0.125,-0.667,-9.415,-2.9630000000000003e-05,6.63e-06,1.543e-05
1646352663.3461843,18360,1646352663,340977430,,0.009037685642773663,0.003132353917985955,-0.9775657515920911,0.21041318853946558,-0.005754,-0.004061,-0.119973,-0.097,-0.634,-9.367,-2.989e-05,6.1e-06,1.503e-05
1646352663.3715239,18361,1646352663,365927457,,0.008995589346161887,0.0031709134823519987,-0.9778879100029845,0.20891208713235743,-0.006806,0.000274,-0.125596,-0.05,-0.733,-9.446,-2.989e-05,5.83e-06,1.552e-05
1646352663.395699,18362,1646352663,391142606,,0.008961826379713508,0.0032554423495247792,-0.9782183112660086,0.20735964715181984,-0.009587,0.001274,-0.12765,0.036,-0.693,-9.499,-2.9470000000000004e-05,5.46e-06,1.4480000000000002e-05
1646352663.4206865,18363,1646352663,415886163,,0.008950557073314203,0.0033620837297810065,-0.9785567043276084,0.2057555839741913,-0.014263,0.003699,-0.132455,0.049,-0.711,-9.504,-2.939e-05,5.28e-06,1.4680000000000002e-05
1646352663.4461982,18364,1646352663,441317558,,0.008936281112318315,0.003485387450202309,-0.9789030792560808,0.2040998686358392,-0.01061,0.005305,-0.136549,-0.034,-0.559,-9.602,-2.9720000000000003e-05,6.360000000000001e-06,1.465e-05
1646352663.4708874,18365,1646352663,465862035,,0.008950040398274382,0.0036050336213633337,-0.9792570109006923,0.20239221109346078,-0.01308,0.004391,-0.143075,-0.103,-0.566,-9.261,-2.9900000000000002e-05,5.2e-06,1.4660000000000002e-05
1646352663.4966383,18366,1646352663,490927219,,0.008978176182289185,0.0037004333406060732,-0.9796149608600442,0.20064951433957007,-0.007852,0.004613,-0.144715,-0.038,-0.599,-9.502,-2.964e-05,5.65e-06,1.4860000000000002e-05
1646352663.5206633,18367,1646352663,515985727,,0.00903259367261209,0.0037561402150370986,-0.9799767317019129,0.1988715891852517,-0.00322,0.005941,-0.14463,-0.02,-0.537,-9.666,-2.9900000000000002e-05,5.12e-06,1.485e-05
1646352663.5455866,18368,1646352663,540897607,,0.009104496362153285,0.003770367482429861,-0.9803405059275563,0.19706695540537006,0.002258,0.0084,-0.149589,-0.021,-0.491,-9.761,-2.965e-05,4.93e-06,1.467e-05
1646352663.5708327,18369,1646352663,565907001,,0.009193730601255872,0.00378742894361062,-0.9807075932855369,0.19522742423061032,-0.004178,0.006706,-0.150899,0.213,-0.429,-9.812,-2.973e-05,5.2e-06,1.4570000000000001e-05
1646352663.5959163,18370,1646352663,590936660,,0.009274598569889464,0.0038022385469801776,-0.9810763705964953,0.19336152631950146,-0.001616,0.004337,-0.153496,0.109,-0.485,-9.596,-3.0070000000000005e-05,5.21e-06,1.4060000000000001e-05
1646352663.621684,18371,1646352663,616203069,,0.009343749179783837,0.0038319679949881265,-0.981446625367786,0.1914694020639722,-0.005458,0.005117,-0.154215,0.147,-0.427,-9.865,-3.0080000000000003e-05,4.85e-06,1.4460000000000002e-05
1646352663.6458044,18372,1646352663,641116857,,0.009387378312329041,0.0038564006142990086,-0.9818151443981138,0.18956800239817548,-0.001854,0.004147,-0.155068,0.148,-0.625,-9.687,-3.006e-05,5.74e-06,1.444e-05
1646352663.6705797,18373,1646352663,665743112,,0.00941078718798782,0.003894381705986159,-0.9821833613789746,0.18764891554690427,-0.003413,-0.00017,-0.158415,0.149,-0.534,-9.847,-3.0240000000000002e-05,5.48e-06,1.444e-05
1646352663.6959453,18374,1646352663,690997600,,0.009418920711551988,0.003920306158778971,-0.9825512772660323,0.18571188081310144,0.000282,0.002643,-0.159175,0.062,-0.571,-9.801,-3.0080000000000003e-05,4.76e-06,1.465e-05
1646352663.7211874,18375,1646352663,716063499,,0.00942889989193823,0.003937389087058309,-0.9829202161617635,0.1837483101269698,0.000231,1.9e-05,-0.160907,0.163,-0.44,-9.865,-3.0590000000000004e-05,4.86e-06,1.4430000000000002e-05
1646352663.7463808,18376,1646352663,740893363,,0.009471141448646372,0.003924717181412022,-0.9832882716469211,0.18176652309024416,0.002458,-0.001094,-0.162508,0.005,-0.659,-9.656,-3.0330000000000003e-05,5.12e-06,1.434e-05
1646352663.770837,18377,1646352663,765898227,,0.009549411664143208,0.003909247787652836,-0.9836582799013345,0.17974958942971556,0.0034,0.004152,-0.165101,0.086,-0.555,-9.816,-3.0930000000000004e-05,4.96e-06,1.5090000000000001e-05
1646352663.7953696,18378,1646352663,790949821,,0.009670730572271167,0.0039008894417293027,-0.98402989585399,0.1776975635661546,-0.000994,0.009299,-0.167324,-0.014,-0.706,-9.306,-3.1190000000000005e-05,4.6e-06,1.479e-05
1646352663.8205311,18379,1646352663,815831899,,0.009819495695904387,0.0038877059568349975,-0.984403107065721,0.17561032442890687,0.005911,0.015945,-0.171404,-0.023,-0.538,-9.443,-3.076e-05,4.33e-06,1.462e-05
1646352663.8459797,18380,1646352663,840830802,,0.00999169345866772,0.00384203862593806,-0.9847809045731996,0.17347038591360708,0.010804,0.012385,-0.175512,0.024,-0.566,-9.449,-3.118e-05,4.87e-06,1.4590000000000001e-05
1646352663.8710234,18381,1646352663,866013765,,0.010169915528020164,0.003760720633613773,-0.9851631273322535,0.17127767613849315,0.009879,0.012834,-0.178993,-0.018,-0.642,-9.575,-3.0930000000000004e-05,4.51e-06,1.461e-05
1646352663.8964908,18382,1646352663,891559123,,0.010365185670699198,0.0036811270552885335,-0.9855476255584885,0.1690410896369281,0.012233,0.016764,-0.181992,0.094,-0.682,-9.515,-3.084e-05,4.86e-06,1.373e-05
1646352663.921532,18383,1646352663,916163682,,0.010554545113617374,0.003634437826190138,-0.9859370750316556,0.16674374506156248,0.004881,0.016265,-0.188577,0.077,-0.881,-9.645,-3.102e-05,4.15e-06,1.4410000000000001e-05
1646352663.9458323,18384,1646352663,941076040,,0.010722346892719373,0.00366254285157077,-0.9863266934100006,0.16441189410704835,-0.002152,0.0154,-0.190036,0.039,-0.851,-9.444,-3.076e-05,4.51e-06,1.4910000000000001e-05
1646352663.9704642,18385,1646352663,965867757,,0.010853355755709976,0.0037540437626699718,-0.986717879621252,0.16203684105785515,-0.008124,0.015598,-0.192565,0.021,-0.721,-9.42,-3.05e-05,4.68e-06,1.434e-05
1646352663.9958017,18386,1646352663,990920543,,0.010940724804821191,0.003899469912481792,-0.9871062698532324,0.159644313057448,-0.009115,0.008526,-0.194674,0.172,-0.594,-9.428,-3.051e-05,4.590000000000001e-06,1.4240000000000001e-05
1646352664.0213108,18387,1646352664,16308784,,0.01096136467494802,0.004024709326378305,-0.987492415222519,0.15723352084494271,-0.008227,0.001781,-0.196029,0.061,-0.684,-9.133,-3.0430000000000002e-05,3.87e-06,1.426e-05
1646352664.0459323,18388,1646352664,40822982,,0.010960908076579052,0.004119860128886247,-0.9878744140959378,0.1548128780859758,-0.00362,0.000183,-0.194608,0.115,-0.536,-9.447,-3.0259999999999998e-05,3.96e-06,1.387e-05
1646352664.071088,18389,1646352664,65945863,,0.010902552372687491,0.00425027604686351,-0.9882495620718817,0.1524003693237653,-0.00977,-0.004899,-0.195248,0.098,-0.581,-9.434,-3.0259999999999998e-05,3.96e-06,1.397e-05
1646352664.0961735,18390,1646352664,91004848,,0.010806463255369428,0.0044016494271820516,-0.988619082910978,0.1499871819139465,-0.011485,-0.005279,-0.196222,0.084,-0.507,-9.507,-3.034e-05,3.96e-06,1.4160000000000002e-05
1646352664.1209986,18391,1646352664,116193771,,0.010715906336080026,0.004580789127606815,-0.9889811644607724,0.14758198421277324,-0.014081,-0.003245,-0.193763,0.047,-0.349,-9.395,-3.009e-05,4.14e-06,1.437e-05
1646352664.1456642,18392,1646352664,141058921,,0.010638637589915732,0.004735945955423458,-0.9893348365445235,0.14519287656616897,-0.00976,-0.000309,-0.192709,0.03,-0.394,-9.591,-3.0430000000000002e-05,3.7e-06,1.377e-05
1646352664.1703906,18393,1646352664,165817022,,0.010585513675744777,0.004912696742806647,-0.9896798204868323,0.14282039501445482,-0.015351,-0.001188,-0.19286,0.031,-0.484,-9.693,-3.0430000000000002e-05,3.7e-06,1.426e-05
1646352664.1957376,18394,1646352664,190720081,,0.010587499741963675,0.00507998394048268,-0.9900161046823576,0.1404642697697518,-0.012904,0.003659,-0.191242,0.125,-0.356,-9.614,-3.0440000000000003e-05,3.34e-06,1.387e-05
1646352664.2209718,18395,1646352664,215758562,,0.010622456221619048,0.005269483659036522,-0.990345038602696,0.13811625711990516,-0.015723,0.009094,-0.188667,0.051,-0.406,-9.442,-3.0520000000000006e-05,3.2500000000000002e-06,1.358e-05
1646352664.2468402,18396,1646352664,241477966,,0.010692952557746875,0.00546358042062215,-0.9906679444442914,0.13576757309868717,-0.012656,0.013492,-0.189205,0.141,-0.258,-9.814,-3.061e-05,3.0700000000000003e-06,1.358e-05
1646352664.2699573,18397,1646352664,265735626,,0.010806007306285672,0.005610136280483198,-0.9909851042358617,0.1334176890807549,-0.011321,0.013978,-0.189412,0.133,-0.216,-9.357,-3.0270000000000003e-05,2.71e-06,1.379e-05
1646352664.295679,18398,1646352664,290853738,,0.010935230824102509,0.005705614175285654,-0.9912945530879091,0.13108384992800842,-0.010522,0.015376,-0.189772,0.055,-0.299,-9.484,-3.053e-05,2.71e-06,1.329e-05
1646352664.3209772,18399,1646352664,316099405,,0.011067311267977413,0.005783013284352501,-0.9916008222467205,0.1287318169617691,-0.005208,0.013122,-0.190455,0.08,-0.273,-9.695,-3.0440000000000003e-05,3.1600000000000007e-06,1.358e-05
1646352664.346792,18400,1646352664,340957641,,0.01121063057536348,0.005843704361392392,-0.9919003751175857,0.12638757345179355,-0.002179,0.009645,-0.190465,0.032,-0.277,-9.6,-3.053e-05,2.71e-06,1.329e-05
1646352664.3709533,18401,1646352664,365928888,,0.011329507152071773,0.005891648112164811,-0.9921969014480166,0.12402515675123425,0.001821,0.010078,-0.190216,0.088,-0.261,-9.587,-3.062e-05,2.6300000000000002e-06,1.329e-05
1646352664.3954647,18402,1646352664,390712976,,0.011442188834316497,0.0059205751269624345,-0.9924890576257795,0.12165316928850631,-0.002139,0.009099,-0.191235,0.036,-0.41,-9.56,-3.062e-05,2.6300000000000002e-06,1.329e-05
1646352664.4200249,18403,1646352664,415762186,,0.011575626481024216,0.005924883543335362,-0.9927775458479965,0.11926292419104577,0.001337,0.013169,-0.192232,0.079,-0.335,-9.552,-3.069e-05,3.4299999999999998e-06,1.3370000000000002e-05
1646352664.4462216,18404,1646352664,440982341,,0.011719804782240313,0.0059123722335121245,-0.9930592339236938,0.1168804857507228,0.004242,0.015438,-0.190769,0.101,-0.35,-9.414,-3.07e-05,2.6300000000000002e-06,1.3280000000000002e-05
1646352664.471553,18405,1646352664,465996026,,0.011847804888971492,0.005888227780625576,-0.9933384612083768,0.1144712181165656,0.006119,0.011807,-0.194127,0.076,-0.293,-9.29,-3.088e-05,2.36e-06,1.347e-05
1646352664.4954684,18406,1646352664,490850925,,0.01196811399991382,0.005853744707534034,-0.9936129729691625,0.11205247818574282,0.002868,0.010805,-0.195751,0.094,-0.382,-9.211,-3.087e-05,2.54e-06,1.367e-05
1646352664.5207531,18407,1646352664,515754222,,0.012071934681932985,0.005808125957120969,-0.9938818630181676,0.10963291672411977,0.003764,0.004962,-0.194462,0.141,-0.333,-9.257,-3.079e-05,2.54e-06,1.3569999999999999e-05
1646352664.545753,18408,1646352664,541003704,,0.012144593393363982,0.005723701700275147,-0.9941445756679154,0.1072208503986821,0.007157,0.006402,-0.19358,0.167,-0.369,-9.435,-3.062e-05,2.1800000000000003e-06,1.339e-05
1646352664.5711343,18409,1646352664,566055536,,0.012201337542395701,0.005619883016951521,-0.9944008411602064,0.10481656060435339,0.0074,-0.001287,-0.19321,0.224,-0.405,-9.394,-3.062e-05,2.2700000000000003e-06,1.3680000000000001e-05
1646352664.5961244,18410,1646352664,590724945,,0.01222803536387432,0.005547865479340527,-0.994651435415413,0.1024120030358828,0.004524,-0.000312,-0.191747,-0.014,-0.474,-9.504,-3.062e-05,2.1800000000000003e-06,1.3980000000000002e-05
1646352664.6204698,18411,1646352664,615743160,,0.012229139261182072,0.005464774633344489,-0.9948939851320501,0.10003270834684937,0.007022,0.001509,-0.190542,-0.089,-0.529,-9.265,-3.062e-05,2.72e-06,1.358e-05
1646352664.645903,18412,1646352664,641516208,,0.012204877578941509,0.005458165361091651,-0.9951306420290241,0.09765374897604412,0.003887,-0.000323,-0.191935,-0.0,-0.493,-9.542,-3.062e-05,2.1800000000000003e-06,1.3780000000000002e-05
1646352664.6704803,18413,1646352664,666065216,,0.012144246513990884,0.005465753634104838,-0.9953619664207518,0.09527433346307258,-0.001887,-0.006444,-0.190937,0.123,-0.423,-9.707,-3.053e-05,2.6300000000000002e-06,1.3880000000000001e-05
1646352664.6952987,18414,1646352664,690782546,,0.0121113125945903,0.005458927138719326,-0.9955857315417269,0.09291161053525487,-0.000932,0.002036,-0.188369,0.182,-0.458,-9.81,-3.062e-05,2.2700000000000003e-06,1.3980000000000002e-05
1646352664.7212737,18415,1646352664,715786457,,0.012081528374583008,0.005417632991869134,-0.9958032853208822,0.09055662796856527,-0.000393,-0.001635,-0.190055,0.08,-0.41,-9.76,-3.088e-05,1.92e-06,1.426e-05
1646352664.7448318,18416,1646352664,740793228,,0.012051616788926398,0.005376510300724044,-0.9960152665327429,0.08820113663365273,0.00312,-0.003774,-0.188261,-0.106,-0.363,-9.642,-3.105e-05,1.92e-06,1.396e-05
1646352664.7705235,18417,1646352664,765745639,,0.012047613158298682,0.005337909211165614,-0.9962205904969248,0.08585392718099452,0.003889,0.003565,-0.187833,-0.007,-0.596,-9.439,-3.088e-05,2.19e-06,1.4160000000000002e-05
1646352664.7949123,18418,1646352664,790806531,,0.012040672789079313,0.005333928368431027,-0.9964216543540347,0.08348926961780904,-0.002733,0.000415,-0.190467,-0.061,-0.534,-9.511,-3.07e-05,2.36e-06,1.4360000000000001e-05
1646352664.821878,18419,1646352664,815995454,,0.01209253805307741,0.005361050787601231,-0.9966161845576061,0.08112465923334916,-0.002345,0.009263,-0.188948,0.085,-0.553,-9.592,-3.046e-05,1.73e-06,1.429e-05
1646352664.8458447,18420,1646352664,840763807,,0.012165884963962663,0.005450907001677159,-0.9968044307215584,0.07876043264084137,-0.008484,0.011327,-0.190022,0.071,-0.53,-9.734,-3.0109999999999998e-05,1.99e-06,1.4010000000000001e-05
1646352664.8705165,18421,1646352664,865859985,,0.012304106377987208,0.005501280079667358,-0.9969884977949096,0.07636936655736656,-0.001749,0.014665,-0.193552,-0.017,-0.45,-9.513,-3.028e-05,1.91e-06,1.4000000000000001e-05
1646352664.8949134,18422,1646352664,890761137,,0.01246322237902187,0.0055089085736547035,-0.997166172542992,0.07398610917069602,0.003927,0.015704,-0.191855,0.036,-0.374,-9.058,-3.0109999999999998e-05,1.9e-06,1.44e-05
1646352664.9205303,18423,1646352664,915740966,,0.01261696029911685,0.005471446046065384,-0.9973397321385102,0.07158445563710188,0.007407,0.012831,-0.192031,-0.042,-0.322,-9.206,-3.0030000000000002e-05,1.8100000000000002e-06,1.382e-05
1646352664.945789,18424,1646352664,940800189,,0.01279296920532841,0.005364506217792617,-0.9975094418114515,0.06915544453589592,0.011643,0.014913,-0.193342,0.08,-0.376,-9.376,-3.0030000000000002e-05,1.9e-06,1.4410000000000001e-05
1646352664.9705815,18425,1646352664,965723991,,0.012970277762636909,0.005230623376568259,-0.9976733425617855,0.06672566234550757,0.011758,0.016373,-0.194873,0.311,-0.332,-9.645,-3.02e-05,1.8200000000000002e-06,1.4010000000000001e-05
1646352664.995959,18426,1646352664,991353750,,0.013147614358122662,0.005087087379255811,-0.9978318950506427,0.06428663156776274,0.01296,0.015502,-0.195151,0.107,-0.441,-9.596,-2.986e-05,1.6299999999999999e-06,1.432e-05
1646352665.020202,18427,1646352665,15760898,,0.013321043651417588,0.00499508755972688,-0.9979836477329216,0.061856590222866124,0.002634,0.009669,-0.194956,0.139,-0.368,-9.332,-3.0370000000000006e-05,1.6400000000000002e-06,1.3900000000000002e-05
1646352665.0473282,18428,1646352665,41397809,,0.013492502830585545,0.004928522611387851,-0.9981288069961148,0.05943523093879727,0.002882,0.018606,-0.192411,0.033,-0.434,-9.763,-3.0370000000000006e-05,1.73e-06,1.449e-05
1646352665.071775,18429,1646352665,66081762,,0.013678694471380495,0.004905586775963307,-0.9982681033727309,0.05700545872592056,-0.001033,0.01796,-0.194886,-0.011,-0.47,-9.337,-3.0290000000000003e-05,1.37e-06,1.479e-05
1646352665.095184,18430,1646352665,90761184,,0.01385367293918177,0.004925103323924277,-0.998400412754734,0.054593359619274785,-0.001827,0.015313,-0.192332,0.313,-0.501,-9.861,-3.0370000000000006e-05,1.8200000000000002e-06,1.4390000000000001e-05
1646352665.1200979,18431,1646352665,115680456,,0.014053556324413458,0.004971428890949526,-0.9985258994312349,0.052190139053867664,-0.003898,0.015589,-0.191891,0.31,-0.476,-9.833,-3.0380000000000004e-05,1.46e-06,1.4779999999999999e-05
1646352665.1452312,18432,1646352665,140824794,,0.014306899665792176,0.005001989771077313,-0.9986448757643752,0.04978659287236324,-0.003409,0.021276,-0.191685,0.076,-0.618,-9.304,-3.054e-05,2.0000000000000003e-06,1.4860000000000002e-05
1646352665.1715412,18433,1646352665,165898799,,0.014577074092217623,0.005049614409042466,-0.9987576535646651,0.04738311673195964,-0.000925,0.025397,-0.190927,0.152,-0.412,-9.658,-2.964e-05,2.1499999999999997e-06,1.5220000000000002e-05
1646352665.1973395,18434,1646352665,191918849,,0.014839670784397336,0.0050780108770844086,-0.9988651861566311,0.04497041094788645,0.001982,0.017039,-0.192913,0.474,-0.534,-9.432,-2.989e-05,1.8100000000000002e-06,1.4460000000000002e-05
1646352665.2182722,18435,1646352665,215862274,,0.015076007569023192,0.005112641687356649,-0.9989675542782172,0.042548800102383266,-0.005745,0.017365,-0.195709,0.316,-0.54,-9.419,-2.9970000000000003e-05,1.8200000000000002e-06,1.5110000000000003e-05
1646352665.2431388,18436,1646352665,240757465,,0.015304974128036669,0.005119516601641215,-0.9990646165657752,0.04011782948997154,0.001414,0.020571,-0.196167,0.309,-0.59,-9.59,-3.03e-05,1.8200000000000002e-06,1.518e-05
1646352665.2704847,18437,1646352665,265683412,,0.015474146189179314,0.00509644971170038,-0.9991578017778282,0.03765984793583361,0.001801,0.012336,-0.196526,0.308,-0.468,-9.383,-3.0050000000000002e-05,1.9e-06,1.548e-05
1646352665.2956734,18438,1646352665,290725708,,0.015636287433363753,0.00502812888644234,-0.9992465026084555,0.03516605550772585,0.01017,0.016095,-0.199593,0.128,-0.41,-9.133,-2.9970000000000003e-05,1.8200000000000002e-06,1.5110000000000003e-05
1646352665.321555,18439,1646352665,316119194,,0.015756332093202763,0.00490514899491377,-0.9993302006373255,0.032662327021652074,0.014342,0.01154,-0.200887,0.325,-0.36,-9.577,-3.0380000000000004e-05,1.8200000000000002e-06,1.527e-05
1646352665.345468,18440,1646352665,340834617,,0.015841359961959275,0.0047714159297386075,-0.9994090007553929,0.030131945069780532,0.007416,0.005442,-0.204123,0.355,-0.403,-9.598,-3.062e-05,2.34e-06,1.581e-05
1646352665.3711364,18441,1646352665,365952730,,0.015934935808274337,0.004628246006886586,-0.999482242306725,0.027566364889241475,0.012885,0.010683,-0.205471,0.207,-0.508,-9.399,-3.062e-05,2.17e-06,1.5720000000000002e-05
1646352665.395451,18442,1646352665,390800237,,0.016027623156401414,0.004493490768364051,-0.9995486236797315,0.025009452945342545,0.014827,0.011478,-0.204419,0.194,-0.408,-9.583,-3.03e-05,1.91e-06,1.584e-05
1646352665.4209485,18443,1646352665,415901422,,0.01616325952172825,0.004367566676348856,-0.9996082861158677,0.02242649619219831,0.005387,0.012349,-0.206892,0.174,-0.58,-9.674,-3.013e-05,2.08e-06,1.594e-05
1646352665.446335,18444,1646352665,440847635,,0.01635138608206414,0.004207110199297809,-0.9996605363818629,0.019842993667595277,0.016405,0.024619,-0.207365,0.035,-0.373,-9.276,-3.0220000000000005e-05,1.8200000000000002e-06,1.556e-05
1646352665.4713311,18445,1646352665,466081380,,0.016591887423711687,0.004002989056361331,-0.9997053664340101,0.017258785396874036,0.018654,0.020252,-0.206318,0.188,-0.601,-9.224,-3.054e-05,2.26e-06,1.601e-05
1646352665.496131,18446,1646352665,490876913,,0.01683047697104344,0.003859020130843104,-0.9997429481269446,0.014692878513151562,0.013461,0.013961,-0.204621,0.28,-0.619,-9.621,-3.071e-05,1.6600000000000002e-06,1.6289999999999998e-05
1646352665.5204048,18447,1646352665,515955209,,0.017102771381812255,0.003758046221946833,-0.9997730139185944,0.012136430273569991,0.001408,0.019257,-0.20327,0.088,-0.821,-8.905,-3.071e-05,1.92e-06,1.5720000000000002e-05
1646352665.545447,18448,1646352665,540803909,,0.01736489562805342,0.003760473175388295,-0.9997961508994883,0.009590406033716936,0.001121,0.023322,-0.20334,0.096,-0.661,-9.527,-3.046e-05,1.57e-06,1.584e-05
1646352665.5711732,18449,1646352665,565900087,,0.017548615198681516,0.0037610445393030396,-0.9998141234600169,0.007044088192258904,-0.000786,0.013933,-0.203209,0.392,-0.822,-9.655,-3.112e-05,1.67e-06,1.5890000000000002e-05
1646352665.595902,18450,1646352665,591065883,,0.017714952887619175,0.0037779227826870887,-0.9998258619045778,0.004489277269842898,-0.000872,0.014571,-0.205183,0.069,-0.62,-9.364,-3.095e-05,2.0100000000000002e-06,1.6270000000000002e-05
1646352665.6209357,18451,1646352665,616092443,,0.017855497769155848,0.00373253914759562,-0.9998317753179611,0.0019158328376374708,0.00878,0.012883,-0.205841,0.246,-0.571,-9.621,-3.096e-05,1.32e-06,1.6000000000000003e-05
1646352665.6454737,18452,1646352665,640800952,,-0.017943646781494887,-0.0036511277741883208,0.99983209896326,0.0006846085592190052,0.008123,0.004863,-0.209754,0.185,-0.699,-9.277,-3.12e-05,1.7500000000000002e-06,1.607e-05
1646352665.670742,18453,1646352665,665758371,,-0.01802278092058472,-0.0035071364585075463,0.9998258224600671,0.0033472531724501324,0.014328,0.004649,-0.214546,0.052,-0.68,-9.607,-3.0550000000000004e-05,1.4800000000000002e-06,1.5640000000000003e-05
1646352665.6956604,18454,1646352665,690885782,,-0.018110088009752674,-0.003362222969620753,0.999812125629416,0.006036026289726349,0.014263,0.012856,-0.216909,0.184,-0.663,-9.389,-3.08e-05,1.14e-06,1.517e-05
1646352665.7214513,18455,1646352665,716133832,,-0.018153443045157487,-0.003233751601305311,0.9997914584961298,0.008776951314017461,0.00792,0.005374,-0.220968,0.434,-0.729,-9.619,-3.137e-05,1.16e-06,1.598e-05
1646352665.7463274,18456,1646352665,741341352,,-0.01821452042585522,-0.003165142702228331,0.9997622584637782,0.01156026248561248,0.002788,0.006045,-0.224649,0.164,-0.854,-9.282,-3.112e-05,1.41e-06,1.599e-05
1646352665.7705925,18457,1646352665,766001462,,-0.018258866398910584,-0.0031570631933639146,0.9997250572236922,0.014368601494413677,0.004546,0.009381,-0.225758,0.167,-0.82,-8.998,-3.129e-05,9e-07,1.599e-05
1646352665.7935913,18458,1646352665,790168523,,-0.0182692760028948,-0.0031923446191088455,0.999679859882919,0.017211049782927843,0.004232,0.00107,-0.226525,0.256,-0.484,-9.633,-3.121e-05,6.4e-07,1.59e-05
1646352665.8214655,18459,1646352665,816003561,,-0.018279508972495154,-0.0032014214743797554,0.9996266573721757,0.0200538356231142,0.002421,-0.002064,-0.228689,0.451,-0.605,-9.42,-3.145e-05,1.07e-06,1.616e-05
1646352665.8462334,18460,1646352665,841226339,,-0.01828874248840602,-0.003158128312715981,0.9995655338608782,0.022897415600253608,0.008121,0.008325,-0.22534,0.37,-0.267,-9.759,-3.145e-05,1.5e-06,1.578e-05
1646352665.8705466,18461,1646352665,865731000,,-0.018286578968884314,-0.003019727759755015,0.9994976717428423,0.025707711965654106,0.010588,6.8e-05,-0.225014,0.117,-0.523,-9.271,-3.162e-05,7.3e-07,1.578e-05
1646352665.8953187,18462,1646352665,890721321,,-0.01827600496489751,-0.002916820269942574,0.9994224549884495,0.028499759067344616,0.010224,-0.000544,-0.223351,0.091,-0.526,-9.291,-3.162e-05,9.9e-07,1.6250000000000002e-05
1646352665.9206824,18463,1646352665,915943622,,-0.01831588611505908,-0.0027692260208346544,0.9993394298543354,0.03126601416038572,0.014698,0.010437,-0.220801,0.09,-0.622,-9.393,-3.187e-05,7.400000000000001e-07,1.605e-05
1646352665.946779,18464,1646352665,941063404,,-0.018357122167725247,-0.0026827952981989763,0.9992491692970429,0.03401347283470422,0.009656,0.001477,-0.21907,0.202,-0.463,-9.802,-3.1950000000000004e-05,5.7e-07,1.652e-05
1646352665.9733455,18465,1646352665,965845108,,-0.018448433725211884,-0.0025417516639325705,0.9991502142669405,0.03677015259544168,0.013068,0.01084,-0.219924,0.091,-0.467,-9.727,-3.2040000000000005e-05,4.8e-07,1.6230000000000002e-05
1646352665.9958882,18466,1646352665,990890264,,-0.018564853382938812,-0.0023909556598406983,0.9990442146086371,0.03950046590755517,0.017019,0.013541,-0.217693,0.211,-0.576,-9.344,-3.202e-05,1.34e-06,1.622e-05
1646352666.0206757,18467,1646352666,16073942,,-0.01865519069566916,-0.0022579241030864752,0.9989308052289148,0.04223898677246946,0.012118,0.004598,-0.219712,0.241,-0.454,-9.801,-3.2279999999999996e-05,4.9e-07,1.641e-05
1646352666.046388,18468,1646352666,41029930,,-0.018754046228013393,-0.0021327390543206025,0.998809694957891,0.04497699892532173,0.009907,0.003778,-0.219313,0.014,-0.542,-9.329,-3.219e-05,1.17e-06,1.631e-05
1646352666.0712013,18469,1646352666,65804481,,-0.018843674811178136,-0.0020071184272341465,0.9986803943942391,0.04773214061611596,0.014146,0.014019,-0.219674,0.231,-0.535,-9.778,-3.244e-05,5.7e-07,1.612e-05
1646352666.0963492,18470,1646352666,91115236,,-0.018887012066980808,-0.001839328659579897,0.9985434934435818,0.05050533978453133,0.016218,0.002624,-0.220971,0.116,-0.533,-9.555,-3.2200000000000003e-05,5.7e-07,1.594e-05
1646352666.1207442,18471,1646352666,115787506,,-0.018937374248184667,-0.0016530931855772547,0.9983978126783247,0.05329587956531659,0.016982,0.004606,-0.223178,0.038,-0.531,-9.486,-3.253e-05,4.0000000000000003e-07,1.546e-05
1646352666.1458414,18472,1646352666,140856981,,-0.018974730023994343,-0.0014057718607491684,0.9982435847281986,0.056104625254856336,0.021976,0.007463,-0.224998,0.125,-0.6,-9.419,-3.2850000000000006e-05,7.5e-07,1.618e-05
1646352666.171658,18473,1646352666,166050672,,-0.019019070280807984,-0.0011485327617144399,0.9980797192065596,0.05893920551470153,0.018771,0.005452,-0.228024,0.125,-0.754,-9.628,-3.244e-05,9.2e-07,1.611e-05
1646352666.1963234,18474,1646352666,190825700,,-0.019073522949334943,-0.0009337247207179941,0.9979064782527299,0.06178988219507149,0.016538,0.00663,-0.228661,-0.018,-0.824,-9.317,-3.2279999999999996e-05,3.1e-07,1.575e-05
1646352666.2204773,18475,1646352666,215904474,,-0.019167378473326224,-0.0008032585545583659,0.9977237758917537,0.06464699063728072,0.012576,0.017916,-0.22809,-0.014,-0.805,-9.636,-3.302e-05,3.3e-07,1.599e-05
1646352666.244207,18476,1646352666,240791082,,-0.01926595717357085,-0.000750273403199416,0.9975316442475638,0.06751946910897773,0.00306,0.01352,-0.230296,0.069,-0.72,-9.645,-3.2850000000000006e-05,6.7e-07,1.637e-05
1646352666.271424,18477,1646352666,265816211,,-0.019402887548429774,-0.0007464873041470735,0.9973305293867849,0.07039023983879472,0.002848,0.014228,-0.231424,0.035,-0.707,-9.348,-3.261e-05,3.2e-07,1.6020000000000002e-05
1646352666.295958,18478,1646352666,290907621,,-0.019554166728911866,-0.0006969596668822066,0.9971201895934702,0.07326988682837117,0.008107,0.015272,-0.230823,0.165,-0.672,-9.399,-3.262e-05,-1.9e-07,1.649e-05
1646352666.3210907,18479,1646352666,315721035,,-0.01969263324819264,-0.0005950317508132575,0.9969017150220374,0.07614996204259332,0.008501,0.007402,-0.229608,0.178,-0.719,-9.469,-3.253e-05,-2e-08,1.621e-05
1646352666.3457205,18480,1646352666,340795040,,-0.01980043797841654,-0.0004423683748554202,0.9966761247349627,0.07902182830953047,0.016449,0.008461,-0.229594,0.111,-0.665,-9.174,-3.2290000000000004e-05,-2.9e-07,1.567e-05
1646352666.3715465,18481,1646352666,366338014,,-0.019904669132192458,-0.0002541341002811224,0.9964415339879465,0.08190243528946443,0.019023,0.011947,-0.229708,0.188,-0.771,-9.262,-3.2540000000000004e-05,-2.8e-07,1.603e-05
1646352666.395521,18482,1646352666,390845537,,-0.019957296681924207,-8.695866412474526e-05,0.9961988769878989,0.08479089712575048,0.014024,0.007241,-0.23208,0.245,-0.658,-9.471,-3.262e-05,-5.4e-07,1.6400000000000002e-05
1646352666.4205077,18483,1646352666,415826320,,-0.020013712499608434,2.8545364268467216e-05,0.9959470689313157,0.0876862953047194,0.004984,0.002437,-0.232791,0.11,-0.705,-8.883,-3.262e-05,-5.4e-07,1.603e-05
1646352666.446678,18484,1646352666,441017866,,-0.020032502642275483,7.125819738252226e-05,0.995686126376003,0.09059708330021904,0.007329,0.004304,-0.232641,0.116,-0.687,-9.387,-3.2300000000000006e-05,-1.06e-06,1.5870000000000002e-05
1646352666.4716237,18485,1646352666,466227054,,-0.0200292341384567,6.819817021439206e-05,0.9954171960151205,0.09350631532806593,0.002473,0.001439,-0.235748,0.306,-0.685,-9.569,-3.262e-05,-6.2e-07,1.622e-05
1646352666.4954808,18486,1646352666,490798473,,-0.020006833205349284,-6.705230938397607e-06,0.9951394365331101,0.09642213665283093,-0.006765,-0.002983,-0.233155,0.116,-0.494,-9.379,-3.2550000000000005e-05,-9.7e-07,1.5759999999999998e-05
1646352666.520446,18487,1646352666,515768766,,-0.020011968239061685,-4.818137511876201e-07,0.9948541695939991,0.09932120804944533,0.004955,0.006117,-0.231916,0.152,-0.575,-9.639,-3.272e-05,-1.57e-06,1.5570000000000002e-05
1646352666.5453744,18488,1646352666,540755271,,-0.02002859171594582,-1.9722430400772976e-05,0.9945620669441282,0.10220151721341988,-0.000813,0.003547,-0.229643,0.075,-0.653,-9.735,-3.263e-05,-1.4000000000000001e-06,1.5850000000000002e-05
1646352666.5707138,18489,1646352666,565853834,,-0.02007152354238921,-3.6287967802983885e-05,0.9942620228115723,0.10507217814679261,0.001625,0.008111,-0.231394,0.111,-0.546,-9.798,-3.288e-05,-1.13e-06,1.5740000000000002e-05
1646352666.5951967,18490,1646352666,590801715,,-0.020177315909555616,-6.405778564766125e-05,0.9939562512742455,0.10790663729416801,0.000299,0.014643,-0.229274,0.31,-0.708,-9.522,-3.288e-05,-1.2200000000000002e-06,1.537e-05
1646352666.6202762,18491,1646352666,615839004,,-0.02028246250326041,-8.255189784381464e-05,0.993642383740583,0.11074036361832951,0.00219,0.007086,-0.229485,0.111,-0.442,-9.641,-3.329e-05,-1.6400000000000002e-06,1.6289999999999998e-05
1646352666.6460905,18492,1646352666,640856266,,-0.020414621761551874,-2.7130841357793107e-05,0.993319733814234,0.113574420084232,0.00479,0.012945,-0.228322,0.2,-0.632,-9.121,-3.2800000000000004e-05,-1.8200000000000002e-06,1.604e-05
1646352666.6712952,18493,1646352666,666558265,,-0.02053593056997093,4.57165807727449e-05,0.9929871258415972,0.1164252609121559,0.009888,0.016714,-0.230555,0.344,-0.522,-9.538,-3.2800000000000004e-05,-1.56e-06,1.575e-05
1646352666.695604,18494,1646352666,690909862,,-0.020630290269375517,0.00019567920397620293,0.9926435364782006,0.11930281774166814,0.015468,0.009864,-0.231233,0.423,-0.569,-9.436,-3.297e-05,-1.9e-06,1.556e-05
1646352666.7202141,18495,1646352666,716174602,,-0.02072181671424188,0.00036368747012228845,0.9922905168737214,0.12218839620016407,0.010264,0.008563,-0.233236,0.169,-0.55,-9.152,-3.321e-05,-1.9e-06,1.573e-05
1646352666.7458358,18496,1646352666,741043806,,-0.020795213692741902,0.0005305880007648181,0.99192616578187,0.1250989976023971,0.017678,0.010394,-0.234071,0.25,-0.438,-9.409,-3.3050000000000004e-05,-1.99e-06,1.603e-05
1646352666.7703254,18497,1646352666,765731811,,-0.020856915910943272,0.0007142909031179953,0.9915523066734914,0.12801758464237628,0.013611,0.003153,-0.236389,0.274,-0.816,-9.2,-3.1140000000000003e-05,4.3e-07,1.537e-05
1646352666.796306,18498,1646352666,790926218,,-0.02089159499338075,0.0007632640901877167,0.991168552529772,0.1309498345268054,0.001897,-0.002978,-0.235763,0.149,-0.774,-9.508,-3.107e-05,2.8e-07,1.53e-05
1646352666.8207278,18499,1646352666,816308975,,-0.02094182915149971,0.0007615582394537943,0.990777157269044,0.1338711487016874,0.002534,0.006112,-0.234803,0.223,-0.812,-9.265,-3.1140000000000003e-05,2.0000000000000002e-07,1.529e-05
1646352666.8459466,18500,1646352666,841238498,,-0.020959779269768983,0.0006765823600524946,0.9903768981639706,0.13679849952534165,-0.003658,0.001932,-0.237117,0.238,-0.581,-9.779,-3.107e-05,-1.8e-07,1.5550000000000002e-05
1646352666.8707368,18501,1646352666,865865468,,-0.020988382404958664,0.0006458123911614951,0.9899688001418402,0.1397170192786256,0.002071,-3.9e-05,-0.235293,0.247,-0.501,-9.324,-3.107e-05,1.3e-07,1.5210000000000002e-05
1646352666.8960595,18502,1646352666,890911340,,-0.021048096911875157,0.00070724941430452,0.9895548803227844,0.14261001452918465,0.008505,0.008706,-0.233402,0.058,-0.512,-9.463,-3.122e-05,-1.0000000000000001e-07,1.529e-05
1646352666.9232836,18503,1646352666,916576623,,-0.021145461422506267,0.0008714298694773629,0.9891326220025453,0.14549490080955443,0.0178,0.006221,-0.231958,0.324,-0.641,-9.761,-3.129e-05,-1.8e-07,1.529e-05
1646352666.9472992,18504,1646352666,941520214,,-0.021280469336533638,0.0010149238507172172,0.9887051211916367,0.14835192915437723,0.013069,0.009973,-0.231188,0.191,-0.722,-9.251,-3.108e-05,-3.4e-07,1.53e-05
1646352666.9705453,18505,1646352666,965851306,,-0.021457227199818983,0.001112926812224193,0.9882673540018805,0.151215031689736,0.008777,0.018922,-0.229168,0.367,-0.689,-9.787,-3.1e-05,-1.8e-07,1.5220000000000002e-05
1646352666.9953516,18506,1646352666,990751504,,-0.021607190119520593,0.0011546698271015063,0.987823400016918,0.1540672789781964,0.004805,0.009251,-0.231768,0.454,-0.686,-9.501,-3.115e-05,-3e-08,1.53e-05
1646352667.0218606,18507,1646352667,15755414,,-0.021719454701057322,0.0011565406810626054,0.9873680429153467,0.1569435424942991,0.000263,0.00963,-0.232202,0.289,-0.453,-9.379,-3.129e-05,-1.0000000000000001e-07,1.546e-05
1646352667.045515,18508,1646352667,40947675,,-0.021804924473005943,0.0012161915113245848,0.9869073812550804,0.15980265007556538,0.010633,0.010547,-0.232985,0.307,-0.55,-9.22,-3.122e-05,-4.1000000000000004e-07,1.4960000000000002e-05
1646352667.0710607,18509,1646352667,65833806,,-0.021799945962784104,0.0013416098175869163,0.9864357294488589,0.1626883957318857,0.014382,-0.003258,-0.234478,0.436,-0.616,-9.215,-3.167e-05,-1.0200000000000002e-06,1.528e-05
1646352667.0955906,18510,1646352667,90770244,,-0.021764260895962388,0.001488673941560811,0.9859547036307744,0.16558207386640586,0.01516,-0.00026,-0.234621,0.178,-0.436,-8.889,-3.145e-05,-7.900000000000002e-07,1.554e-05
1646352667.1205356,18511,1646352667,115737438,,-0.021651752337605405,0.0016667709084015013,0.9854665764754511,0.16847566632960287,0.01283,-0.004888,-0.234359,0.434,-0.62,-9.344,-3.1230000000000004e-05,-8.000000000000001e-07,1.5129999999999999e-05
1646352667.1457355,18512,1646352667,141266107,,-0.021443821700981337,0.0018279496983746569,0.984970442465667,0.17137691962380674,0.014735,-0.015497,-0.234999,0.41,-0.725,-9.561,-3.189e-05,-7.100000000000001e-07,1.569e-05
1646352667.17128,18513,1646352667,166046142,,-0.021195200405231446,0.001963315300856805,0.9844651380775042,0.17428511348606907,0.017615,-0.016486,-0.234975,0.26,-0.675,-9.268,-3.145e-05,-7.100000000000001e-07,1.563e-05
1646352667.1959848,18514,1646352667,190942764,,-0.020905272650306228,0.002027842904186874,0.9839523833199132,0.17719075818911972,0.016233,-0.021534,-0.235695,0.231,-0.652,-9.578,-3.182e-05,-1.0900000000000002e-06,1.578e-05
1646352667.2208178,18515,1646352667,215753078,,-0.020608807112068396,0.002125545406375587,0.9834261896149812,0.18012131663271258,0.012743,-0.02423,-0.236888,0.134,-0.672,-9.695,-3.13e-05,-7.900000000000002e-07,1.4960000000000002e-05
1646352667.2445958,18516,1646352667,240773916,,-0.020329690395994894,0.0022691824541374323,0.9828905769842857,0.18305099883609033,0.021264,-0.011153,-0.237233,0.183,-0.532,-9.649,-3.19e-05,-1.32e-06,1.578e-05
1646352667.2710035,18517,1646352667,265748262,,-0.02006789637324503,0.002503922490435743,0.9823404024181636,0.1860063001197415,0.027278,-0.016169,-0.242806,0.159,-0.648,-9.598,-3.1530000000000005e-05,-1.33e-06,1.538e-05
1646352667.2972298,18518,1646352667,291174411,,-0.019825856342527606,0.0028129418882585884,0.9817737980466573,0.188995323347589,0.034073,-0.013737,-0.244591,-0.081,-0.709,-9.38,-3.182e-05,-1.32e-06,1.561e-05
1646352667.321453,18519,1646352667,315738916,,-0.01965752980242233,0.0031896742961583227,0.9811860963996814,0.19203450661770835,0.033779,-0.006392,-0.249004,0.079,-0.953,-9.345,-3.182e-05,-1.25e-06,1.528e-05
1646352667.3451943,18520,1646352667,340811967,,-0.019507458725385146,0.0035523626939281136,0.9805817909096681,0.19510558964252253,0.030464,-0.007627,-0.252169,0.188,-0.739,-9.612,-3.138e-05,-9.5e-07,1.563e-05
1646352667.3686676,18521,1646352667,365930557,,-0.019384090319170117,0.003947899372934668,0.9799548880459986,0.19823493266272146,0.029673,-0.008364,-0.257663,0.023,-1.011,-9.219,-3.19e-05,-1.7100000000000001e-06,1.536e-05
1646352667.396289,18522,1646352667,390841007,,-0.01927754259756867,0.004249516250753702,0.9793095088994093,0.2014030877177192,0.025258,-0.005278,-0.259172,-0.1,-0.981,-9.294,-3.138e-05,-1.33e-06,1.5129999999999999e-05
1646352667.421877,18523,1646352667,416331529,,-0.019191992543956458,0.004484280946678396,0.9786504029275148,0.20458481736530879,0.022402,-0.002104,-0.261708,0.205,-1.25,-9.619,-3.198e-05,-1.7800000000000001e-06,1.5700000000000002e-05
1646352667.4457066,18524,1646352667,440953969,,-0.019074229351127358,0.00456995687438552,0.9779755046286742,0.2077960577468128,0.006041,-0.016622,-0.262024,0.042,-1.193,-9.543,-3.139e-05,-1.6400000000000002e-06,1.539e-05
1646352667.4710135,18525,1646352667,466113567,,-0.018987859238569563,0.004590528496336602,0.9772882066288756,0.21101220209688504,0.004795,-0.008564,-0.26355,-0.076,-1.021,-9.443,-3.1530000000000005e-05,-1.25e-06,1.529e-05
1646352667.4956574,18526,1646352667,491088867,,-0.018875913322586563,0.004605303094711292,0.9765870850364737,0.2142432179080762,0.009603,-0.005143,-0.26345,-0.04,-1.103,-9.477,-3.138e-05,-1.18e-06,1.5220000000000002e-05
1646352667.520598,18527,1646352667,515800476,,-0.018744223182074075,0.004588146426301352,0.9758758850453753,0.21747151536828235,0.003587,-0.011135,-0.264063,0.026,-1.068,-10.01,-3.146e-05,-1.95e-06,1.556e-05
1646352667.5471823,18528,1646352667,541479825,,-0.01862602176166335,0.004591040861748242,0.9751535832140599,0.22069771816201378,0.002843,-0.010099,-0.264988,-0.097,-1.202,-9.363,-3.147e-05,-2.02e-06,1.497e-05
1646352667.570368,18529,1646352667,565901756,,-0.018589594103513633,0.004549798621211613,0.9744137125285408,0.22394562545385716,-0.00028,0.001263,-0.267325,-0.069,-1.078,-9.811,-3.175e-05,-1.6299999999999999e-06,1.5620000000000003e-05
1646352667.5958362,18530,1646352667,590832948,,-0.018571902377485378,0.004468512254375696,0.9736551136624884,0.22722419870955782,-0.004601,-0.002746,-0.269152,0.113,-0.963,-9.741,-3.146e-05,-1.56e-06,1.5720000000000002e-05
1646352667.6208208,18531,1646352667,616268634,,-0.01861987580717144,0.004340285984069667,0.9728787206164806,0.23052430916096875,-0.011492,0.002658,-0.274682,-0.055,-0.926,-9.297,-3.117e-05,-1.6400000000000002e-06,1.5740000000000002e-05
1646352667.6459055,18532,1646352667,640765905,,-0.018694271075445284,0.004219050187390347,0.9720844968551751,0.23384707571037805,-0.008114,0.007353,-0.273871,0.163,-0.835,-9.689,-3.117e-05,-2.03e-06,1.6000000000000003e-05
1646352667.6711926,18533,1646352667,665812253,,-0.018794764845448217,0.0040694321905513095,0.9712683572818719,0.2372087154364799,-0.0097,0.002621,-0.27745,0.084,-0.835,-9.043,-3.109e-05,-1.72e-06,1.566e-05
1646352667.6957443,18534,1646352667,691028594,,-0.018868838788762547,0.003887253544184331,0.9704349923543175,0.24059256388534295,-0.013355,-0.001809,-0.281411,0.159,-0.884,-9.347,-3.1100000000000004e-05,-2.03e-06,1.575e-05
1646352667.7206993,18535,1646352667,715982198,,-0.01894446621495225,0.0036696701318217648,0.9695900641586667,0.2439728431726509,-0.016116,0.002611,-0.27922,0.255,-0.961,-8.955,-3.102e-05,-2.03e-06,1.575e-05
1646352667.745375,18536,1646352667,741090536,,-0.018954361061952682,0.0033995847221541787,0.9687326773940979,0.24735839336742266,-0.017965,-0.006763,-0.281076,0.21,-0.688,-9.199,-3.1100000000000004e-05,-2.26e-06,1.567e-05
1646352667.7715492,18537,1646352667,765916109,,-0.018890388548804184,0.0031097534506446347,0.9678669557120337,0.2507330028031245,-0.016944,-0.012233,-0.278462,0.12,-0.665,-8.875,-3.1100000000000004e-05,-2.34e-06,1.584e-05
1646352667.7967126,18538,1646352667,791188478,,-0.018748386841176704,0.0028157787187358977,0.9669995437506982,0.2540717453141973,-0.016865,-0.0163,-0.275866,0.372,-0.68,-9.322,-3.0890000000000004e-05,-2.9600000000000005e-06,1.527e-05
1646352667.8207996,18539,1646352667,815973281,,-0.018544624268664843,0.0025576411778084583,0.9661257072588131,0.25739206117516067,-0.008457,-0.023853,-0.2733,0.397,-0.393,-9.495,-3.081e-05,-2.73e-06,1.527e-05
1646352667.8456347,18540,1646352667,841242551,,-0.01830654193466904,0.0024322706507205333,0.9652490659828481,0.26067833665480333,-0.002268,-0.022098,-0.272307,0.036,-0.514,-9.099,-3.081e-05,-2.5e-06,1.569e-05
1646352667.8701787,18541,1646352667,865758657,,-0.01808708717876734,0.0023732786996662025,0.9643627199168657,0.2639541044578511,0.008576,-0.007381,-0.272001,0.067,-0.452,-9.99,-3.081e-05,-2.73e-06,1.527e-05
1646352667.8965132,18542,1646352667,891535043,,-0.017835639830984098,0.00243022376976777,0.9634695662025369,0.2672122358084366,0.01636,-0.011853,-0.270435,0.303,-0.583,-9.774,-3.082e-05,-2.9600000000000005e-06,1.5700000000000002e-05
1646352667.921881,18543,1646352667,915765762,,-0.017618889652157108,0.0025228101519675066,0.9625598567917565,0.2704842550859389,0.015842,-0.016136,-0.271875,-0.025,-0.268,-9.542,-3.0890000000000004e-05,-2.9600000000000005e-06,1.552e-05
1646352667.9432511,18544,1646352667,940813302,,-0.017462970016110194,0.0027493329645854247,0.9616371395084466,0.27375444793551484,0.026941,-0.000883,-0.271746,-0.054,-0.343,-9.456,-3.082e-05,-3.4200000000000003e-06,1.553e-05
1646352667.9702256,18545,1646352667,965672254,,-0.01731985721914173,0.003051868949976948,0.9606976622536273,0.27703918564390156,0.028457,-0.00209,-0.272621,0.099,-0.482,-9.671,-3.082e-05,-3.27e-06,1.5870000000000002e-05
1646352667.995029,18546,1646352667,990689039,,-0.0171744799752567,0.003417128684403037,0.95974396303753,0.28032995894507956,0.038453,-0.005997,-0.274982,0.094,-0.435,-9.461,-3.0969999999999997e-05,-3.4200000000000003e-06,1.561e-05
1646352668.0210066,18547,1646352668,16019344,,-0.017072931429054795,0.003840886211168702,0.9587727755748812,0.2836344961776861,0.039382,0.005401,-0.273404,0.118,-0.344,-9.425,-3.096e-05,-3.11e-06,1.577e-05
1646352668.047394,18548,1646352668,40743112,,-0.016939396709786596,0.0043009116281433534,0.9577876686440667,0.2869448392838572,0.039497,-0.002245,-0.276242,0.158,-0.571,-9.487,-3.082e-05,-3.27e-06,1.5870000000000002e-05
1646352668.0706508,18549,1646352668,65865993,,-0.016792050993018035,0.0047657265781640805,0.9567936006347351,0.29024355403359003,0.042369,-0.006291,-0.276047,0.146,-0.62,-9.326,-3.104e-05,-3.5700000000000005e-06,1.569e-05
1646352668.0952425,18550,1646352668,90740680,,-0.016623120367703723,0.005260375293490602,0.955787961701774,0.29353938847619837,0.047239,-0.001091,-0.27397,0.101,-0.727,-9.747,-3.0969999999999997e-05,-3.4200000000000003e-06,1.595e-05
1646352668.1209404,18551,1646352668,116008758,,-0.016445955301987687,0.005770145988556169,0.9547784402195474,0.29680695083067693,0.044135,-8e-05,-0.27132,-0.054,-0.68,-10.076,-2.9230000000000003e-05,-1.94e-06,1.529e-05
1646352668.1464632,18552,1646352668,141340255,,-0.01627608641212955,0.006245186083606896,0.9537629886707889,0.30005374202574203,0.037767,0.000713,-0.271953,-0.076,-0.94,-9.832,-2.9370000000000002e-05,-2.5e-06,1.5220000000000002e-05
1646352668.17116,18553,1646352668,165913820,,-0.01617127753382331,0.006649082177052255,0.9527387988483708,0.3032870927983754,0.034268,0.008239,-0.270842,-0.151,-0.988,-9.666,-2.95e-05,-2.0000000000000003e-06,1.528e-05
1646352668.1956408,18554,1646352668,191122770,,-0.016146092651785505,0.006968155298855639,0.9517140534680109,0.3064818248041784,0.023986,0.005249,-0.267847,-0.227,-1.067,-9.858,-2.9310000000000006e-05,-2.36e-06,1.5060000000000001e-05
1646352668.2204847,18555,1646352668,215763092,,-0.01621234448844318,0.00719776760943336,0.9506863863516856,0.30964616392457084,0.012895,0.013575,-0.266871,-0.189,-1.032,-9.938,-2.9310000000000006e-05,-2.5700000000000004e-06,1.5220000000000002e-05
1646352668.2440479,18556,1646352668,241177320,,-0.016370907693229804,0.007366712787148875,0.9496503007904832,0.3127971085744823,0.009085,0.024991,-0.265043,0.032,-1.225,-9.786,-2.9170000000000004e-05,-2.2200000000000003e-06,1.515e-05
1646352668.2681046,18557,1646352668,265031576,,-0.016592039955194295,0.007484199750337055,0.9486062273513246,0.3159349876074335,0.004559,0.01892,-0.265535,0.068,-1.169,-9.583,-2.9380000000000003e-05,-2.5700000000000004e-06,1.5060000000000001e-05
1646352668.2948668,18558,1646352668,290756702,,-0.016845833361247682,0.007531739322115784,0.9475493805292409,0.31907626401818173,-0.003418,0.016221,-0.266338,-0.199,-1.107,-9.36,-2.924e-05,-2.78e-06,1.515e-05
1646352668.3208668,18559,1646352668,316062211,,-0.01711886471978795,0.007551116467432501,0.9464765558650122,0.32222981598341427,-0.002975,0.02337,-0.26616,-0.106,-1.117,-9.463,-2.9380000000000003e-05,-2.5e-06,1.4829999999999999e-05
1646352668.3454084,18560,1646352668,340790987,,-0.017369905688446603,0.007555934687541634,0.9453880410232095,0.3253961372199589,-0.001187,0.018488,-0.268301,-0.046,-1.009,-9.083,-2.945e-05,-2.99e-06,1.499e-05
1646352668.3711789,18561,1646352668,366370677,,-0.017535630815963172,0.007542553083247523,0.9442818252962869,0.3285840013755775,-0.000243,0.004023,-0.271432,0.046,-0.831,-9.505,-2.9310000000000006e-05,-2.99e-06,1.5e-05
1646352668.3968499,18562,1646352668,391161680,,-0.017668586868295016,0.00751910733235031,0.9431596895605093,0.33178469532382837,-0.00402,0.007445,-0.27249,0.031,-0.895,-9.143,-2.925e-05,-2.8500000000000002e-06,1.4840000000000002e-05
1646352668.42196,18563,1646352668,415847063,,-0.017766578691458947,0.007465751454900842,0.9420247006230421,0.33498966350155,-0.005048,0.007702,-0.274132,0.05,-0.682,-9.526,-2.925e-05,-2.99e-06,1.546e-05
1646352668.4463542,18564,1646352668,440874814,,-0.017808367751311834,0.0073647558055750205,0.9408832356436019,0.3381824349294101,-0.005117,-0.000876,-0.271373,0.201,-0.761,-9.597,-2.9320000000000004e-05,-3.13e-06,1.515e-05
1646352668.4707766,18565,1646352668,466090202,,-0.017835380626166405,0.007230593095906379,0.9397315916411202,0.34137099084873634,-0.008708,-0.002703,-0.272783,-0.179,-0.501,-9.24,-2.945e-05,-2.8500000000000002e-06,1.5220000000000002e-05
1646352668.4957595,18566,1646352668,490939378,,-0.01784341479656738,0.007126144635050258,0.9385750256907323,0.3445399131605498,-0.001379,0.000657,-0.269575,-0.084,-0.384,-9.557,-2.951e-05,-2.78e-06,1.514e-05
1646352668.520702,18567,1646352668,515916585,,-0.017797450645056653,0.007019368959862424,0.9374207056294328,0.34767283452573405,-0.001786,-0.0079,-0.265683,0.077,-0.218,-9.444,-2.925e-05,-2.92e-06,1.4690000000000002e-05
1646352668.5457036,18568,1646352668,540810585,,-0.017744432472946554,0.006983387779787573,0.9362642789060873,0.35077851624036854,0.006677,-0.008619,-0.263323,-0.072,-0.167,-9.497,-2.919e-05,-3.5600000000000002e-06,1.5320000000000002e-05
1646352668.5707624,18569,1646352668,565937519,,-0.017697884766859,0.007079132988421458,0.9351111961841412,0.35384137904147933,0.015165,-0.002095,-0.259752,-0.014,-0.279,-9.41,-2.9320000000000004e-05,-3.34e-06,1.5e-05
1646352668.5956879,18570,1646352668,591012716,,-0.017671961633216635,0.007266223798808608,0.9339559271839318,0.35687705143612425,0.020562,0.003846,-0.258314,-0.094,-0.391,-9.518,-2.939e-05,-3.55e-06,1.539e-05
